,ts,id,Ax,Ay,Az,Gx,Gy,Gz
0,-0.755,IMU0,-0.037109375,-0.48974609375,-0.08544921875,-0.5602240896358543,-0.42016806722689076,-0.0700280112044818
1,-0.745,IMU0,-0.0361328125,-0.4931640625,-0.07861328125,-0.5602240896358543,-0.700280112044818,-0.0700280112044818
2,-0.735,IMU0,-0.0361328125,-0.4931640625,-0.07861328125,-0.5602240896358543,-0.700280112044818,-0.0700280112044818
3,-0.725,IMU0,-0.037109375,-0.498046875,-0.07958984375,-0.6302521008403361,-0.6302521008403361,-0.1400560224089636
4,-0.715,IMU0,-0.0390625,-0.4970703125,-0.0859375,-0.6302521008403361,-0.4901960784313726,-0.0700280112044818
5,-0.705,IMU0,-0.03662109375,-0.49560546875,-0.07958984375,-0.700280112044818,0.350140056022409,0.1400560224089636
6,-0.695,IMU0,-0.0400390625,-0.494140625,-0.07861328125,-0.7703081232492998,0.6302521008403361,0.21008403361344538
7,-0.685,IMU0,-0.03955078125,-0.4921875,-0.0849609375,-0.8403361344537815,0.700280112044818,0.21008403361344538
8,-0.675,IMU0,-0.03955078125,-0.49072265625,-0.080078125,-0.7703081232492998,0.9103641456582633,0.1400560224089636
9,-0.665,IMU0,-0.041015625,-0.49169921875,-0.08154296875,-0.7703081232492998,-0.1400560224089636,0.0
10,-0.655,IMU0,-0.03955078125,-0.4951171875,-0.0849609375,-0.700280112044818,-0.6302521008403361,-0.0700280112044818
11,-0.645,IMU0,-0.0419921875,-0.4951171875,-0.078125,-0.6302521008403361,-0.42016806722689076,-0.1400560224089636
12,-0.635,IMU0,-0.03515625,-0.49462890625,-0.08447265625,-0.5602240896358543,-0.4901960784313726,-0.1400560224089636
13,-0.625,IMU0,-0.041015625,-0.49609375,-0.07861328125,-0.5602240896358543,-0.0700280112044818,-0.0700280112044818
14,-0.615,IMU0,-0.03515625,-0.49169921875,-0.0791015625,-0.700280112044818,-0.1400560224089636,-0.0700280112044818
15,-0.605,IMU0,-0.03662109375,-0.4912109375,-0.07763671875,-0.8403361344537815,-0.21008403361344538,-0.0700280112044818
16,-0.595,IMU0,-0.04052734375,-0.49169921875,-0.0791015625,-0.7703081232492998,-0.4901960784313726,-0.0700280112044818
17,-0.585,IMU0,-0.03369140625,-0.4912109375,-0.08056640625,-0.9803921568627452,-0.42016806722689076,0.0
18,-0.575,IMU0,-0.04248046875,-0.4951171875,-0.08203125,-0.9803921568627452,-0.350140056022409,0.0
19,-0.565,IMU0,-0.03759765625,-0.49609375,-0.0869140625,-0.9103641456582633,-0.700280112044818,0.0
20,-0.555,IMU0,-0.0400390625,-0.49609375,-0.08349609375,-0.8403361344537815,-0.21008403361344538,-0.0700280112044818
21,-0.545,IMU0,-0.04150390625,-0.4951171875,-0.083984375,-0.7703081232492998,0.0,-0.0700280112044818
22,-0.535,IMU0,-0.037109375,-0.4921875,-0.08203125,-0.700280112044818,-0.6302521008403361,-0.21008403361344538
23,-0.525,IMU0,-0.0390625,-0.49169921875,-0.08056640625,-0.6302521008403361,-0.5602240896358543,-0.21008403361344538
24,-0.515,IMU0,-0.03564453125,-0.49169921875,-0.07763671875,-0.6302521008403361,-0.4901960784313726,-0.21008403361344538
25,-0.505,IMU0,-0.03662109375,-0.49267578125,-0.0791015625,-0.700280112044818,-0.6302521008403361,-0.1400560224089636
26,-0.495,IMU0,-0.03662109375,-0.494140625,-0.07861328125,-0.8403361344537815,-0.8403361344537815,-0.0700280112044818
27,-0.485,IMU0,-0.03564453125,-0.4970703125,-0.08056640625,-0.8403361344537815,-0.4901960784313726,0.0
28,-0.475,IMU0,-0.03662109375,-0.4951171875,-0.08203125,-0.9103641456582633,-0.1400560224089636,0.0700280112044818
29,-0.465,IMU0,-0.0400390625,-0.494140625,-0.07958984375,-0.9803921568627452,-0.350140056022409,0.1400560224089636
30,-0.455,IMU0,-0.037109375,-0.494140625,-0.0869140625,-0.9803921568627452,-0.1400560224089636,0.1400560224089636
31,-0.445,IMU0,-0.04052734375,-0.48974609375,-0.0830078125,-0.9103641456582633,-0.4901960784313726,0.0
32,-0.435,IMU0,-0.04248046875,-0.490234375,-0.08642578125,-0.700280112044818,-0.6302521008403361,0.0
33,-0.425,IMU0,-0.0380859375,-0.49560546875,-0.08154296875,-0.5602240896358543,-0.42016806722689076,0.0
34,-0.415,IMU0,-0.03662109375,-0.49609375,-0.08251953125,-0.4901960784313726,-1.1204481792717087,-0.21008403361344538
35,-0.405,IMU0,-0.037109375,-0.4951171875,-0.08056640625,-0.42016806722689076,-1.1904761904761905,-0.2801120448179272
36,-0.395,IMU0,-0.03564453125,-0.4951171875,-0.08056640625,-0.6302521008403361,-0.6302521008403361,-0.1400560224089636
37,-0.385,IMU0,-0.03662109375,-0.50732421875,-0.0771484375,-0.700280112044818,-0.700280112044818,-0.0700280112044818
38,-0.375,IMU0,-0.03955078125,-0.498046875,-0.08984375,-0.700280112044818,-0.9803921568627452,0.0
39,-0.365,IMU0,-0.02978515625,-0.48095703125,-0.0751953125,-0.9103641456582633,-1.1204481792717087,0.1400560224089636
40,-0.355,IMU0,-0.0390625,-0.4814453125,-0.078125,-0.9803921568627452,-0.6302521008403361,0.1400560224089636
41,-0.345,IMU0,-0.04736328125,-0.49462890625,-0.1015625,-0.6302521008403361,-0.2801120448179272,0.1400560224089636
42,-0.335,IMU0,-0.0341796875,-0.49853515625,-0.07763671875,-0.9103641456582633,-0.4901960784313726,0.2801120448179272
43,-0.325,IMU0,-0.037109375,-0.4951171875,-0.09326171875,-0.5602240896358543,-0.9803921568627452,0.0700280112044818
44,-0.315,IMU0,-0.04833984375,-0.51611328125,-0.103515625,-0.350140056022409,-0.5602240896358543,0.0
45,-0.305,IMU0,-0.0390625,-0.60546875,-0.0869140625,-1.1204481792717087,0.700280112044818,0.0700280112044818
46,-0.295,IMU0,-0.017578125,-1.142578125,-0.10888671875,-1.050420168067227,0.1400560224089636,-0.350140056022409
47,-0.285,IMU0,-0.04736328125,-1.9541015625,-0.18212890625,-1.1204481792717087,0.0,-0.8403361344537815
48,-0.275,IMU0,-0.03466796875,-1.9541015625,-0.1923828125,-1.1204481792717087,0.0,-0.8403361344537815
49,-0.265,IMU0,-0.03466796875,-2.35693359375,-0.1923828125,-2.170868347338936,3.081232492997199,-1.050420168067227
50,-0.255,IMU0,-0.01123046875,-1.70703125,-0.12548828125,-2.2408963585434174,6.932773109243698,-1.3305322128851542
51,-0.245,IMU0,-0.0283203125,-1.4970703125,-0.13623046875,-1.6106442577030813,7.282913165266106,-1.9607843137254903
52,-0.235,IMU0,-0.04638671875,-1.64990234375,-0.1708984375,-2.170868347338936,6.162464985994398,-2.170868347338936
53,-0.225,IMU0,-0.005859375,-2.1044921875,-0.14794921875,-2.450980392156863,5.882352941176471,-2.170868347338936
54,-0.215,IMU0,0.0146484375,-2.578125,-0.26416015625,-3.2913165266106446,8.61344537815126,-2.801120448179272
55,-0.205,IMU0,0.013671875,-2.90771484375,-0.283203125,-4.061624649859944,19.677871148459385,-3.151260504201681
56,-0.195,IMU0,-0.05029296875,-2.80029296875,-0.111328125,-4.761904761904762,21.9187675070028,-2.3109243697478994
57,-0.185,IMU0,0.08154296875,-2.7490234375,-0.22021484375,-3.991596638655462,12.605042016806724,-2.100840336134454
58,-0.175,IMU0,-0.00146484375,-2.75244140625,-0.212890625,-2.2408963585434174,7.563025210084034,-1.2605042016806722
59,-0.165,IMU0,0.0087890625,-2.84423828125,-0.21728515625,-3.081232492997199,4.901960784313726,0.42016806722689076
60,-0.155,IMU0,0.06689453125,-2.97265625,-0.19091796875,-2.8711484593837535,0.4901960784313726,1.5406162464985995
61,-0.145,IMU0,-0.02001953125,-3.013671875,-0.19482421875,-0.4901960784313726,-4.69187675070028,2.2408963585434174
62,-0.135,IMU0,-0.00634765625,-3.00732421875,-0.32275390625,-1.1904761904761905,-7.002801120448179,3.081232492997199
63,-0.125,IMU0,0.0078125,-3.02587890625,-0.11767578125,0.0,-10.434173669467787,2.801120448179272
64,-0.115,IMU0,-0.01513671875,-3.0166015625,-0.32763671875,-0.9803921568627452,-7.282913165266106,2.030812324929972
65,-0.105,IMU0,-0.03515625,-3.0537109375,-0.2373046875,-1.8207282913165266,-5.5322128851540615,1.4705882352941178
66,-0.095,IMU0,-0.02294921875,-3.05224609375,-0.2119140625,-0.5602240896358543,-6.722689075630252,0.2801120448179272
67,-0.085,IMU0,0.0244140625,-3.07373046875,-0.31591796875,-0.0700280112044818,-4.761904761904762,-1.4705882352941178
68,-0.075,IMU0,-0.1044921875,-3.064453125,-0.2041015625,-1.1204481792717087,-1.050420168067227,-1.5406162464985995
69,-0.065,IMU0,0.0234375,-3.10546875,-0.2255859375,-0.0700280112044818,-0.6302521008403361,-1.5406162464985995
70,-0.055,IMU0,0.0546875,-3.10791015625,-0.25830078125,0.5602240896358543,-7.002801120448179,-2.73109243697479
71,-0.045,IMU0,-0.0478515625,-3.13525390625,-0.2001953125,0.2801120448179272,-4.901960784313726,-2.8711484593837535
72,-0.035,IMU0,0.01611328125,-3.1435546875,-0.23583984375,-0.2801120448179272,-3.2212885154061626,-2.3109243697478994
73,-0.025,IMU0,0.02783203125,-3.12109375,-0.26220703125,-1.2605042016806722,-7.843137254901961,-1.9607843137254903
74,-0.015,IMU0,0.00537109375,-3.16064453125,-0.24462890625,-1.3305322128851542,-8.473389355742297,-1.400560224089636
75,-0.005,IMU0,-0.01416015625,-3.23779296875,-0.236328125,-0.5602240896358543,-12.254901960784315,-0.700280112044818
76,0.005,IMU0,-0.00439453125,-3.205078125,-0.25439453125,0.2801120448179272,-15.19607843137255,-0.1400560224089636
77,0.015,IMU0,-0.0078125,-3.18310546875,-0.234375,0.8403361344537815,-13.58543417366947,0.0700280112044818
78,0.025,IMU0,-0.01318359375,-3.22998046875,-0.2412109375,1.050420168067227,-9.313725490196079,0.0700280112044818
79,0.035,IMU0,-0.04443359375,-3.25634765625,-0.18798828125,1.4705882352941178,-6.722689075630252,0.0
80,0.045,IMU0,-0.0625,-3.255859375,-0.45458984375,-0.350140056022409,-5.742296918767507,-0.6302521008403361
81,0.055,IMU0,-0.28564453125,-3.22705078125,-0.51123046875,-4.901960784313726,16.106442577030812,2.8711484593837535
82,0.065,IMU0,0.05712890625,-3.28564453125,-0.140625,-4.831932773109244,22.338935574229694,1.9607843137254903
83,0.075,IMU0,-0.01123046875,-3.279296875,-0.39306640625,-0.7703081232492998,40.476190476190474,-1.9607843137254903
84,0.085,IMU0,-0.09912109375,-3.283203125,-0.3134765625,2.170868347338936,64.70588235294117,-4.411764705882353
85,0.095,IMU0,-0.01611328125,-3.33544921875,-0.16552734375,2.380952380952381,71.07843137254902,-5.322128851540617
86,0.105,IMU0,-0.0068359375,-3.322265625,-0.33154296875,2.170868347338936,68.69747899159664,-5.5322128851540615
87,0.115,IMU0,0.0625,-3.392578125,-0.228515625,0.2801120448179272,64.9859943977591,-5.8123249299719895
88,0.125,IMU0,0.005859375,-3.39892578125,-0.2109375,-1.680672268907563,68.76750700280112,-4.271708683473389
89,0.135,IMU0,0.0341796875,-3.37939453125,-0.173828125,-0.7703081232492998,73.17927170868347,-1.3305322128851542
90,0.145,IMU0,0.09326171875,-3.37109375,-0.2099609375,-1.1204481792717087,70.44817927170868,0.9803921568627452
91,0.155,IMU0,0.044921875,-3.4072265625,-0.19384765625,-1.7507002801120448,64.2156862745098,2.801120448179272
92,0.165,IMU0,0.078125,-3.4345703125,-0.18017578125,-1.5406162464985995,57.563025210084035,4.061624649859944
93,0.175,IMU0,0.109375,-3.4326171875,-0.19189453125,-1.8207282913165266,49.85994397759104,3.8515406162464987
94,0.185,IMU0,-0.00732421875,-3.4287109375,-0.158203125,-2.100840336134454,48.59943977591037,4.761904761904762
95,0.195,IMU0,-0.00732421875,-3.4287109375,-0.158203125,-2.100840336134454,48.59943977591037,4.761904761904762
96,0.205,IMU0,0.173828125,-3.4306640625,-0.19873046875,-3.081232492997199,43.27731092436975,5.042016806722689
97,0.215,IMU0,-0.01220703125,-3.4794921875,-0.15869140625,-2.450980392156863,24.789915966386555,4.551820728291316
98,0.225,IMU0,0.04736328125,-3.48095703125,-0.11865234375,-2.380952380952381,24.159663865546218,5.392156862745098
99,0.235,IMU0,0.099609375,-3.48828125,-0.21923828125,-0.9103641456582633,11.554621848739496,4.621848739495799
100,0.245,IMU0,-0.13623046875,-3.46435546875,-0.435546875,-2.801120448179272,16.106442577030812,5.6722689075630255
101,0.255,IMU0,0.14697265625,-3.46630859375,-0.2001953125,-6.302521008403362,10.434173669467787,6.162464985994398
102,0.265,IMU0,0.02294921875,-3.49658203125,-0.06787109375,-4.131652661064426,-21.638655462184875,3.151260504201681
103,0.275,IMU0,-0.07958984375,-3.4873046875,-0.36962890625,-1.680672268907563,-26.820728291316527,1.7507002801120448
104,0.285,IMU0,0.11572265625,-3.5576171875,-0.20458984375,-0.42016806722689076,-34.66386554621849,0.8403361344537815
105,0.295,IMU0,-0.0283203125,-3.51904296875,-0.3037109375,0.9103641456582633,-47.82913165266107,-2.5910364145658265
106,0.305,IMU0,-0.05126953125,-3.48974609375,-0.35888671875,0.5602240896358543,-32.28291316526611,-2.5910364145658265
107,0.315,IMU0,0.14892578125,-3.505859375,-0.43896484375,-2.2408963585434174,-34.173669467787114,-2.2408963585434174
108,0.325,IMU0,0.29833984375,-3.587890625,0.03955078125,1.050420168067227,-71.35854341736695,-7.913165266106443
109,0.335,IMU0,-0.115234375,-3.49169921875,-0.0322265625,2.450980392156863,-93.4873949579832,-10.224089635854343
110,0.345,IMU0,-0.09619140625,-3.42236328125,-0.5048828125,7.352941176470589,-123.24929971988796,-6.512605042016807
111,0.355,IMU0,0.10693359375,-3.49169921875,-0.32275390625,3.711484593837535,-129.83193277310926,-2.2408963585434174
112,0.365,IMU0,-0.07080078125,-3.541015625,-0.314453125,2.5910364145658265,-126.61064425770309,-2.8711484593837535
113,0.375,IMU0,-0.21142578125,-3.49267578125,-0.5107421875,1.8907563025210086,-101.05042016806723,-2.170868347338936
114,0.385,IMU0,0.0380859375,-3.53466796875,-0.318359375,1.6106442577030813,-83.68347338935574,-2.5210084033613445
115,0.395,IMU0,-0.11279296875,-3.484375,-0.52392578125,0.4901960784313726,-77.59103641456583,-6.792717086834735
116,0.405,IMU0,0.11572265625,-3.5810546875,-0.01171875,4.061624649859944,-68.69747899159664,-11.764705882352942
117,0.415,IMU0,-0.04541015625,-3.55322265625,-0.3349609375,4.831932773109244,-42.85714285714286,-13.935574229691877
118,0.425,IMU0,-0.1064453125,-3.57568359375,-0.28173828125,8.403361344537815,-22.829131652661065,-11.904761904761905
119,0.435,IMU0,-0.10400390625,-3.57080078125,-0.35009765625,2.450980392156863,-13.865546218487395,-6.792717086834735
120,0.445,IMU0,-0.01416015625,-3.6171875,-0.32275390625,-3.991596638655462,-5.042016806722689,-2.450980392156863
121,0.455,IMU0,0.048828125,-3.63720703125,-0.23779296875,-8.543417366946779,4.621848739495799,-1.1904761904761905
122,0.465,IMU0,0.013671875,-3.61279296875,-0.17724609375,-10.014005602240896,17.57703081232493,-1.8207282913165266
123,0.475,IMU0,-0.0478515625,-3.5830078125,-0.19921875,-9.313725490196079,29.831932773109244,-1.6106442577030813
124,0.485,IMU0,-0.048828125,-3.66748046875,-0.27587890625,-9.873949579831933,41.596638655462186,0.42016806722689076
125,0.495,IMU0,-0.00244140625,-3.47705078125,-0.23486328125,-12.254901960784315,52.38095238095239,2.380952380952381
126,0.505,IMU0,-0.00048828125,-3.646484375,-0.27490234375,-15.126050420168069,63.445378151260506,3.361344537815126
127,0.515,IMU0,-0.03125,-3.64404296875,-0.22705078125,-16.73669467787115,76.33053221288516,3.5014005602240896
128,0.525,IMU0,-0.05615234375,-3.63818359375,-0.23779296875,-17.857142857142858,89.28571428571429,4.971988795518207
129,0.535,IMU0,-0.0224609375,-3.6376953125,-0.25732421875,-19.537815126050422,102.17086834733894,6.792717086834735
130,0.545,IMU0,-0.01416015625,-3.64697265625,-0.2529296875,-21.498599439775912,115.12605042016807,7.983193277310924
131,0.555,IMU0,-0.02001953125,-3.64208984375,-0.23486328125,-23.249299719887958,128.50140056022408,8.403361344537815
132,0.565,IMU0,-0.06103515625,-3.65966796875,-0.24267578125,-24.57983193277311,142.296918767507,9.38375350140056
133,0.575,IMU0,-0.0400390625,-3.6396484375,-0.251953125,-26.190476190476193,156.09243697478993,10.92436974789916
134,0.585,IMU0,-0.02099609375,-3.6416015625,-0.251953125,-28.151260504201684,169.6778711484594,11.904761904761905
135,0.595,IMU0,-0.04150390625,-3.6328125,-0.2421875,-29.971988795518207,183.61344537815125,12.254901960784315
136,0.605,IMU0,-0.05859375,-3.6318359375,-0.24462890625,-31.372549019607845,197.7591036414566,12.88515406162465
137,0.615,IMU0,-0.0556640625,-3.646484375,-0.24658203125,-32.913165266106446,211.90476190476193,14.005602240896359
138,0.625,IMU0,-0.04052734375,-3.6884765625,-0.24072265625,-34.523809523809526,226.1904761904762,14.635854341736696
139,0.635,IMU0,-0.052734375,-3.69970703125,-0.24169921875,-35.99439775910364,241.03641456582633,14.635854341736696
140,0.645,IMU0,-0.06787109375,-3.68603515625,-0.25732421875,-37.675070028011206,255.53221288515408,14.84593837535014
141,0.655,IMU0,-0.06787109375,-3.68603515625,-0.25732421875,-37.675070028011206,255.53221288515408,14.84593837535014
142,0.665,IMU0,-0.06591796875,-3.6884765625,-0.23828125,-39.49579831932773,269.6078431372549,15.19607843137255
143,0.675,IMU0,-0.06005859375,-3.70556640625,-0.21923828125,-40.616246498599445,284.3137254901961,15.056022408963585
144,0.685,IMU0,-0.07861328125,-3.67822265625,-0.25537109375,-42.016806722689076,299.5098039215686,14.705882352941178
145,0.695,IMU0,-0.09423828125,-3.67626953125,-0.23974609375,-43.55742296918768,313.515406162465,14.495798319327731
146,0.705,IMU0,-0.08935546875,-3.689453125,-0.20947265625,-44.81792717086835,328.1512605042017,14.215686274509805
147,0.715,IMU0,-0.0908203125,-3.70361328125,-0.22412109375,-45.51820728291317,343.1372549019608,13.515406162464986
148,0.725,IMU0,-0.11572265625,-3.71533203125,-0.2490234375,-46.21848739495798,358.33333333333337,12.815126050420169
149,0.735,IMU0,-0.1220703125,-3.71337890625,-0.220703125,-47.26890756302521,373.249299719888,12.184873949579833
150,0.745,IMU0,-0.1318359375,-3.703125,-0.20849609375,-47.61904761904762,388.79551820728295,11.484593837535014
151,0.755,IMU0,-0.13623046875,-3.70947265625,-0.2275390625,-47.61904761904762,404.90196078431376,10.644257703081234
152,0.765,IMU0,-0.15283203125,-3.75048828125,-0.24072265625,-47.82913165266107,420.93837535014006,9.73389355742297
153,0.775,IMU0,-0.169921875,-3.73681640625,-0.2119140625,-47.82913165266107,436.624649859944,8.683473389355743
154,0.785,IMU0,-0.19091796875,-3.7138671875,-0.21240234375,-47.54901960784314,453.36134453781517,8.053221288515406
155,0.795,IMU0,-0.19970703125,-3.697265625,-0.236328125,-47.05882352941177,470.37815126050424,7.492997198879552
156,0.805,IMU0,-0.208984375,-3.7275390625,-0.228515625,-46.63865546218488,487.18487394957987,6.792717086834735
157,0.815,IMU0,-0.22802734375,-3.734375,-0.21630859375,-45.79831932773109,504.3417366946779,5.8123249299719895
158,0.825,IMU0,-0.2548828125,-3.73193359375,-0.22509765625,-44.537815126050425,521.7787114845938,5.112044817927171
159,0.835,IMU0,-0.27587890625,-3.72119140625,-0.2431640625,-43.69747899159664,538.3053221288516,4.901960784313726
160,0.845,IMU0,-0.27880859375,-3.7333984375,-0.2353515625,-42.64705882352941,554.5518207282913,4.69187675070028
161,0.855,IMU0,-0.31201171875,-3.74072265625,-0.2421875,-41.52661064425771,570.9383753501401,4.621848739495799
162,0.865,IMU0,-0.3251953125,-3.74560546875,-0.24462890625,-40.12605042016807,588.3753501400561,4.901960784313726
163,0.875,IMU0,-0.33154296875,-3.75,-0.259765625,-38.79551820728292,605.2521008403362,5.322128851540617
164,0.885,IMU0,-0.35009765625,-3.74658203125,-0.25439453125,-37.46498599439776,621.6386554621849,5.8123249299719895
165,0.895,IMU0,-0.37158203125,-3.759765625,-0.2666015625,-36.27450980392157,637.8151260504202,6.652661064425771
166,0.905,IMU0,-0.37353515625,-3.76318359375,-0.2685546875,-35.15406162464986,653.641456582633,7.633053221288516
167,0.915,IMU0,-0.38623046875,-3.77783203125,-0.2802734375,-33.96358543417367,670.2380952380953,8.543417366946779
168,0.925,IMU0,-0.39404296875,-3.7421875,-0.28076171875,-32.563025210084035,687.8151260504202,9.243697478991598
169,0.935,IMU0,-0.40576171875,-3.72998046875,-0.28759765625,-31.232492997198882,704.7619047619048,9.943977591036415
170,0.945,IMU0,-0.41357421875,-3.72265625,-0.3173828125,-30.11204481792717,721.358543417367,10.714285714285715
171,0.955,IMU0,-0.43115234375,-3.73583984375,-0.3271484375,-29.271708683473392,739.5658263305322,11.554621848739496
172,0.965,IMU0,-0.4365234375,-3.7470703125,-0.330078125,-28.571428571428573,758.5434173669469,12.394957983193278
173,0.975,IMU0,-0.4345703125,-3.73974609375,-0.33251953125,-27.73109243697479,777.170868347339,12.88515406162465
174,0.985,IMU0,-0.45263671875,-3.73095703125,-0.35107421875,-26.89075630252101,795.1680672268908,12.955182072829132
175,0.995,IMU0,-0.47265625,-3.73486328125,-0.35546875,-26.12044817927171,814.0756302521008,12.955182072829132
176,1.005,IMU0,-0.47509765625,-3.7412109375,-0.35498046875,-24.789915966386555,833.0532212885155,13.095238095238097
177,1.015,IMU0,-0.48388671875,-3.76025390625,-0.36962890625,-23.669467787114847,853.781512605042,13.305322128851541
178,1.025,IMU0,-0.48095703125,-3.748046875,-0.361328125,-22.408963585434176,874.2296918767507,13.23529411764706
179,1.035,IMU0,-0.5146484375,-3.7548828125,-0.36767578125,-20.938375350140056,894.3977591036415,13.23529411764706
180,1.045,IMU0,-0.5048828125,-3.76953125,-0.3564453125,-19.11764705882353,912.8851540616247,13.305322128851541
181,1.055,IMU0,-0.498046875,-3.77685546875,-0.35205078125,-16.876750700280112,931.5826330532213,13.025210084033613
182,1.065,IMU0,-0.53076171875,-3.79736328125,-0.33349609375,-14.285714285714286,948.529411764706,12.605042016806724
183,1.075,IMU0,-0.53271484375,-3.7998046875,-0.32568359375,-11.484593837535014,962.9551820728292,12.745098039215687
184,1.085,IMU0,-0.5283203125,-3.79833984375,-0.30859375,-8.333333333333334,975.6302521008404,13.095238095238097
185,1.095,IMU0,-0.55810546875,-3.763671875,-0.29248046875,-4.761904761904762,989.0056022408965,13.935574229691877
186,1.105,IMU0,-0.560546875,-3.7451171875,-0.283203125,-0.9103641456582633,1001.5406162464986,15.406162464985995
187,1.115,IMU0,-0.560546875,-3.7451171875,-0.283203125,-0.9103641456582633,1001.5406162464986,15.406162464985995
188,1.125,IMU0,-0.5517578125,-3.76220703125,-0.27294921875,2.5910364145658265,1012.1848739495799,16.946778711484594
189,1.135,IMU0,-0.56640625,-3.7744140625,-0.25439453125,6.372549019607844,1025.140056022409,18.977591036414566
190,1.145,IMU0,-0.58837890625,-3.794921875,-0.2666015625,10.014005602240896,1038.515406162465,21.84873949579832
191,1.155,IMU0,-0.5927734375,-3.78173828125,-0.2490234375,13.58543417366947,1051.1204481792718,25.210084033613448
192,1.165,IMU0,-0.61083984375,-3.75927734375,-0.23974609375,16.596638655462186,1064.9859943977592,28.991596638655462
193,1.175,IMU0,-0.61865234375,-3.75927734375,-0.2255859375,19.537815126050422,1078.2913165266107,33.19327731092437
194,1.185,IMU0,-0.6416015625,-3.7451171875,-0.2021484375,21.9187675070028,1089.5658263305322,38.02521008403362
195,1.195,IMU0,-0.64013671875,-3.7509765625,-0.2109375,23.529411764705884,1101.1904761904761,43.207282913165265
196,1.205,IMU0,-0.654296875,-3.77001953125,-0.1943359375,24.299719887955185,1116.1764705882354,48.529411764705884
197,1.215,IMU0,-0.685546875,-3.7861328125,-0.1796875,24.50980392156863,1130.6022408963586,53.641456582633054
198,1.225,IMU0,-0.71533203125,-3.78564453125,-0.173828125,24.299719887955185,1145.7983193277312,58.82352941176471
199,1.235,IMU0,-0.73583984375,-3.787109375,-0.16650390625,23.459383753501402,1162.18487394958,64.6358543417367
200,1.245,IMU0,-0.74365234375,-3.80859375,-0.142578125,22.128851540616246,1179.6918767507004,70.37815126050421
201,1.255,IMU0,-0.75830078125,-3.8408203125,-0.146484375,19.607843137254903,1196.498599439776,75.35014005602241
202,1.265,IMU0,-0.8115234375,-3.83984375,-0.1064453125,16.73669467787115,1214.0756302521008,79.76190476190476
203,1.275,IMU0,-0.828125,-3.83056640625,-0.08203125,13.58543417366947,1231.09243697479,83.68347338935574
204,1.285,IMU0,-0.86669921875,-3.84814453125,-0.07275390625,10.434173669467787,1249.1596638655462,87.25490196078432
205,1.295,IMU0,-0.91796875,-3.8486328125,-0.06396484375,6.442577030812325,1270.0980392156864,90.33613445378151
206,1.305,IMU0,-0.98095703125,-3.849609375,-0.0263671875,2.5210084033613445,1291.9467787114847,92.99719887955183
207,1.315,IMU0,-1.03515625,-3.87255859375,-0.03076171875,-1.400560224089636,1315.266106442577,95.65826330532214
208,1.325,IMU0,-1.11669921875,-3.88232421875,-0.00439453125,-5.042016806722689,1337.8851540616247,98.17927170868347
209,1.335,IMU0,-1.1796875,-3.896484375,0.0126953125,-8.473389355742297,1359.5238095238096,100.63025210084034
210,1.345,IMU0,-1.21728515625,-3.91162109375,0.021484375,-11.414565826330533,1379.6918767507004,102.94117647058825
211,1.355,IMU0,-1.2587890625,-3.923828125,0.01318359375,-15.126050420168069,1398.6694677871149,104.34173669467788
212,1.365,IMU0,-1.3046875,-3.93798828125,-0.0087890625,-19.18767507002801,1417.2969187675071,104.83193277310924
213,1.375,IMU0,-1.380859375,-3.9228515625,-0.01171875,-23.179271708683473,1435.15406162465,105.0420168067227
214,1.385,IMU0,-1.41845703125,-3.91796875,-0.0107421875,-27.73109243697479,1452.591036414566,104.83193277310924
215,1.395,IMU0,-1.44140625,-3.9658203125,-0.01953125,-32.142857142857146,1469.3977591036414,103.78151260504202
216,1.405,IMU0,-1.4736328125,-3.97900390625,-0.02587890625,-35.714285714285715,1485.9243697478992,101.40056022408965
217,1.415,IMU0,-1.51513671875,-3.93896484375,-0.03271484375,-38.655462184873954,1501.6106442577031,98.24929971988796
218,1.425,IMU0,-1.54248046875,-3.91015625,-0.06982421875,-41.10644257703081,1517.0868347338937,94.74789915966387
219,1.435,IMU0,-1.5732421875,-3.9130859375,-0.06884765625,-42.85714285714286,1531.7226890756303,90.75630252100841
220,1.445,IMU0,-1.623046875,-3.93701171875,-0.06787109375,-43.4873949579832,1546.218487394958,86.5546218487395
221,1.455,IMU0,-1.63134765625,-3.94580078125,-0.07861328125,-42.577030812324935,1560.9243697478992,82.42296918767508
222,1.465,IMU0,-1.64404296875,-3.93896484375,-0.1142578125,-41.10644257703081,1576.3305322128851,78.64145658263305
223,1.475,IMU0,-1.65966796875,-3.92236328125,-0.125,-38.51540616246499,1592.4369747899161,74.85994397759104
224,1.485,IMU0,-1.68896484375,-3.92578125,-0.15283203125,-35.08403361344538,1608.1232492997199,71.5686274509804
225,1.495,IMU0,-1.7158203125,-3.939453125,-0.14697265625,-31.092436974789916,1623.9495798319329,69.32773109243698
226,1.505,IMU0,-1.716796875,-3.93212890625,-0.1640625,-26.5406162464986,1638.375350140056,68.0672268907563
227,1.515,IMU0,-1.7119140625,-3.904296875,-0.15869140625,-21.638655462184875,1652.170868347339,67.50700280112045
228,1.525,IMU0,-1.74462890625,-3.87646484375,-0.14111328125,-15.966386554621849,1666.5966386554624,67.64705882352942
229,1.535,IMU0,-1.73291015625,-3.88818359375,-0.158203125,-10.92436974789916,1680.812324929972,69.25770308123249
230,1.545,IMU0,-1.73486328125,-3.87548828125,-0.12060546875,-6.302521008403362,1694.747899159664,71.77871148459384
231,1.555,IMU0,-1.76904296875,-3.85888671875,-0.1044921875,-1.9607843137254903,1708.8935574229693,74.64985994397759
232,1.565,IMU0,-1.79345703125,-3.875,-0.09375,2.5210084033613445,1721.778711484594,78.8515406162465
233,1.575,IMU0,-1.81494140625,-3.876953125,-0.05712890625,2.5210084033613445,1721.778711484594,78.8515406162465
234,1.585,IMU0,-1.81494140625,-3.876953125,-0.05712890625,5.9523809523809526,1736.2044817927172,84.17366946778712
235,1.595,IMU0,-1.83447265625,-3.8662109375,-0.03759765625,8.053221288515406,1750.7703081232494,90.05602240896359
236,1.605,IMU0,-1.869140625,-3.85400390625,-0.01904296875,9.73389355742297,1765.546218487395,96.42857142857143
237,1.615,IMU0,-1.89404296875,-3.8759765625,0.0,9.173669467787116,1780.5322128851542,103.01120448179272
238,1.625,IMU0,-1.93994140625,-3.9189453125,0.029296875,8.053221288515406,1795.8683473389356,109.10364145658264
239,1.635,IMU0,-2.0185546875,-3.92529296875,0.06640625,5.6722689075630255,1812.324929971989,115.26610644257704
240,1.645,IMU0,-2.0751953125,-3.9501953125,0.0791015625,2.5210084033613445,1830.812324929972,121.70868347338936
241,1.655,IMU0,-2.11328125,-3.95751953125,0.11474609375,-1.8207282913165266,1850.700280112045,126.9607843137255
242,1.665,IMU0,-2.193359375,-3.966796875,0.13427734375,-6.512605042016807,1870.0980392156864,130.74229691876752
243,1.675,IMU0,-2.244140625,-3.970703125,0.107421875,-12.394957983193278,1888.935574229692,133.75350140056022
244,1.685,IMU0,-2.33056640625,-3.97021484375,0.1337890625,-18.837535014005603,1907.422969187675,135.29411764705884
245,1.695,IMU0,-2.39208984375,-3.95556640625,0.1708984375,-24.859943977591037,1925.3501400560224,135.29411764705884
246,1.705,IMU0,-2.4638671875,-3.9580078125,0.1572265625,-29.831932773109244,1942.6470588235295,134.31372549019608
247,1.715,IMU0,-2.50927734375,-3.9541015625,0.14990234375,-34.03361344537815,1959.5238095238096,132.3529411764706
248,1.725,IMU0,-2.5615234375,-3.958984375,0.1484375,-37.81512605042017,1976.8907563025211,128.921568627451
249,1.735,IMU0,-2.65478515625,-3.953125,0.138671875,-39.91596638655462,1993.8375350140057,125.14005602240897
250,1.745,IMU0,-2.697265625,-3.943359375,0.1357421875,-40.96638655462185,2010.4341736694678,121.5686274509804
251,1.755,IMU0,-2.7177734375,-3.9296875,0.12646484375,-40.54621848739496,2026.4705882352941,117.85714285714286
252,1.765,IMU0,-2.78173828125,-3.90869140625,0.0859375,-39.35574229691877,2043.0672268907565,114.28571428571429
253,1.775,IMU0,-2.828125,-3.90576171875,0.0517578125,-38.16526610644258,2058.1932773109243,111.83473389355743
254,1.785,IMU0,-2.8369140625,-3.86376953125,0.04833984375,-36.34453781512605,2070.8683473389356,110.08403361344538
255,1.795,IMU0,-2.8544921875,-3.84521484375,0.04931640625,-33.54341736694678,2084.383753501401,108.33333333333334
256,1.805,IMU0,-2.8671875,-3.84423828125,-0.00146484375,-30.32212885154062,2097.9691876750703,107.21288515406162
257,1.815,IMU0,-2.88134765625,-3.8447265625,0.00830078125,-26.750700280112046,2112.81512605042,107.14285714285715
258,1.825,IMU0,-2.85302734375,-3.8125,0.015625,-23.669467787114847,2125.9803921568628,106.79271708683474
259,1.835,IMU0,-2.8515625,-3.7978515625,0.00341796875,-20.378151260504204,2139.7759103641456,106.51260504201682
260,1.845,IMU0,-2.9013671875,-3.796875,0.0205078125,-16.666666666666668,2153.8515406162464,107.42296918767508
261,1.855,IMU0,-2.95654296875,-3.8095703125,0.06982421875,-13.445378151260504,2166.9467787114845,110.0140056022409
262,1.865,IMU0,-2.95263671875,-3.76904296875,0.1220703125,-8.403361344537815,2180.392156862745,113.72549019607844
263,1.875,IMU0,-2.9580078125,-3.73291015625,0.13427734375,-4.341736694677872,2195.8683473389356,118.41736694677871
264,1.885,IMU0,-2.9931640625,-3.755859375,0.126953125,-2.030812324929972,2211.274509803922,123.109243697479
265,1.895,IMU0,-3.08544921875,-3.7646484375,0.17138671875,-1.2605042016806722,2225.0700280112046,128.71148459383755
266,1.905,IMU0,-3.14990234375,-3.76220703125,0.19775390625,-1.7507002801120448,2239.4957983193276,135.71428571428572
267,1.915,IMU0,-3.19189453125,-3.77978515625,0.24267578125,-5.042016806722689,2256.09243697479,142.64705882352942
268,1.925,IMU0,-3.26171875,-3.76953125,0.2724609375,-8.19327731092437,2271.5686274509803,148.4593837535014
269,1.935,IMU0,-3.32763671875,-3.7880859375,0.29248046875,-13.165266106442578,2277.9411764705883,152.8011204481793
270,1.945,IMU0,-3.4140625,-3.82080078125,0.2919921875,-18.977591036414566,2275.6302521008406,155.67226890756302
271,1.955,IMU0,-3.5185546875,-3.82763671875,0.32275390625,-23.80952380952381,2286.764705882353,157.14285714285714
272,1.965,IMU0,-3.56884765625,-3.822265625,0.30029296875,-29.6218487394958,2294.187675070028,157.3529411764706
273,1.975,IMU0,-3.59765625,-3.84521484375,0.3056640625,-35.15406162464986,2294.3977591036414,155.74229691876752
274,1.985,IMU0,-3.72265625,-3.82080078125,0.30126953125,-38.865546218487395,2294.3977591036414,152.59103641456582
275,1.995,IMU0,-3.7646484375,-3.78662109375,0.26904296875,-42.7170868347339,2294.0476190476193,148.52941176470588
276,2.005,IMU0,-3.80712890625,-3.82666015625,0.25537109375,-44.25770308123249,2294.2577030812326,143.9075630252101
277,2.015,IMU0,-3.87646484375,-3.8037109375,0.25830078125,-43.207282913165265,2294.3977591036414,139.07563025210084
278,2.025,IMU0,-3.916015625,-3.7587890625,0.216796875,-41.38655462184874,2294.3977591036414,135.7843137254902
279,2.035,IMU0,-3.9189453125,-3.70849609375,0.21484375,-38.445378151260506,2294.3977591036414,133.19327731092437
280,2.045,IMU0,-3.9189453125,-3.70849609375,0.21484375,-38.445378151260506,2294.3977591036414,133.19327731092437
281,2.055,IMU0,-3.94140625,-3.6669921875,0.18798828125,-35.57422969187675,2294.3977591036414,130.88235294117646
282,2.065,IMU0,-3.9541015625,-3.6787109375,0.16650390625,-30.672268907563026,2294.3977591036414,130.25210084033614
283,2.075,IMU0,-3.96435546875,-3.68896484375,0.1708984375,-27.73109243697479,2294.3977591036414,130.46218487394958
284,2.085,IMU0,-3.9912109375,-3.6748046875,0.21435546875,-23.31932773109244,2294.3977591036414,131.5826330532213
285,2.095,IMU0,-3.96240234375,-3.619140625,0.20654296875,-18.837535014005603,2294.3977591036414,133.61344537815125
286,2.105,IMU0,-4.01171875,-3.6025390625,0.2080078125,-14.705882352941178,2294.3977591036414,136.27450980392157
287,2.115,IMU0,-4.0634765625,-3.591796875,0.2392578125,-12.184873949579833,2294.3977591036414,140.12605042016807
288,2.125,IMU0,-4.103515625,-3.56201171875,0.27294921875,-11.27450980392157,2294.3977591036414,145.09803921568627
289,2.135,IMU0,-4.1884765625,-3.55810546875,0.3134765625,-10.994397759103641,2294.3977591036414,150.3501400560224
290,2.145,IMU0,-4.2333984375,-3.583984375,0.3359375,-12.394957983193278,2294.3977591036414,156.09243697478993
291,2.155,IMU0,-4.2734375,-3.595703125,0.36083984375,-14.635854341736696,2294.3977591036414,161.1344537815126
292,2.165,IMU0,-4.36865234375,-3.60546875,0.39013671875,-17.43697478991597,2294.3977591036414,165.19607843137257
293,2.175,IMU0,-4.4365234375,-3.66259765625,0.40185546875,-21.988795518207283,2294.3977591036414,168.20728291316527
294,2.185,IMU0,-4.501953125,-3.68798828125,0.45703125,-26.190476190476193,2294.3977591036414,169.6778711484594
295,2.195,IMU0,-4.5859375,-3.67578125,0.44775390625,-30.11204481792717,2294.3977591036414,169.95798319327733
296,2.205,IMU0,-4.634765625,-3.66845703125,0.43994140625,-33.4733893557423,2294.3977591036414,169.187675070028
297,2.215,IMU0,-4.72216796875,-3.64892578125,0.44677734375,-36.76470588235294,2294.3977591036414,167.15686274509804
298,2.225,IMU0,-4.775390625,-3.615234375,0.390625,-37.95518207282913,2294.3977591036414,164.49579831932775
299,2.235,IMU0,-4.84765625,-3.61572265625,0.3984375,-38.37535014005602,2294.3977591036414,162.18487394957984
300,2.245,IMU0,-4.87451171875,-3.62451171875,0.39599609375,-39.00560224089636,2294.3977591036414,159.59383753501402
301,2.255,IMU0,-4.9453125,-3.58984375,0.35888671875,-36.97478991596639,2294.3977591036414,157.91316526610646
302,2.265,IMU0,-4.8984375,-3.57080078125,0.35400390625,-36.5546218487395,2294.3977591036414,156.79271708683473
303,2.275,IMU0,-4.90234375,-3.5703125,0.3583984375,-33.26330532212885,2294.3977591036414,154.62184873949582
304,2.285,IMU0,-4.98388671875,-3.53955078125,0.3447265625,-31.372549019607845,2294.3977591036414,153.78151260504202
305,2.295,IMU0,-4.98388671875,-3.51416015625,0.365234375,-28.151260504201684,2294.3977591036414,154.62184873949582
306,2.305,IMU0,-5.0166015625,-3.4462890625,0.39599609375,-24.649859943977592,2294.3977591036414,155.74229691876752
307,2.315,IMU0,-5.08935546875,-3.4130859375,0.39453125,-20.938375350140056,2294.3977591036414,158.61344537815125
308,2.325,IMU0,-5.134765625,-3.4169921875,0.46875,-18.627450980392158,2294.3977591036414,162.46498599439778
309,2.335,IMU0,-5.197265625,-3.4599609375,0.4775390625,-17.22689075630252,2294.3977591036414,167.15686274509804
310,2.345,IMU0,-5.24853515625,-3.466796875,0.486328125,-16.876750700280112,2294.3977591036414,172.82913165266106
311,2.355,IMU0,-5.2978515625,-3.453125,0.52001953125,-19.18767507002801,2294.3977591036414,177.45098039215688
312,2.365,IMU0,-5.419921875,-3.44384765625,0.5087890625,-23.31932773109244,2294.3977591036414,181.23249299719888
313,2.375,IMU0,-5.4580078125,-3.48876953125,0.50439453125,-27.3109243697479,2294.3977591036414,184.2436974789916
314,2.385,IMU0,-5.5224609375,-3.51025390625,0.56591796875,-33.4733893557423,2294.3977591036414,185.0140056022409
315,2.395,IMU0,-5.60986328125,-3.5078125,0.56640625,-36.97478991596639,2294.3977591036414,183.26330532212887
316,2.405,IMU0,-5.67333984375,-3.4921875,0.5205078125,-37.885154061624654,2294.3977591036414,180.74229691876752
317,2.415,IMU0,-5.68408203125,-3.5078125,0.482421875,-40.12605042016807,2294.3977591036414,177.52100840336135
318,2.425,IMU0,-5.77197265625,-3.498046875,0.47607421875,-40.616246498599445,2294.3977591036414,173.66946778711485
319,2.435,IMU0,-5.8359375,-3.4736328125,0.49609375,-39.42577030812325,2294.3977591036414,171.42857142857144
320,2.445,IMU0,-5.80419921875,-3.42822265625,0.54248046875,-36.76470588235294,2294.3977591036414,170.30812324929974
321,2.455,IMU0,-5.7783203125,-3.4306640625,0.56787109375,-32.703081232493,2294.3977591036414,169.04761904761907
322,2.465,IMU0,-5.84130859375,-3.41845703125,0.478515625,-27.73109243697479,2294.3977591036414,168.8375350140056
323,2.475,IMU0,-5.92822265625,-3.3486328125,0.478515625,-24.299719887955185,2294.3977591036414,171.07843137254903
324,2.485,IMU0,-5.986328125,-3.34228515625,0.49755859375,-22.759103641456583,2294.3977591036414,175.70028011204482
325,2.495,IMU0,-6.0439453125,-3.33837890625,0.54296875,-21.498599439775912,2294.3977591036414,181.37254901960785
326,2.505,IMU0,-6.0439453125,-3.33837890625,0.54296875,-21.498599439775912,2294.3977591036414,181.37254901960785
327,2.515,IMU0,-6.02490234375,-3.3662109375,0.5888671875,-22.899159663865547,2294.3977591036414,186.2044817927171
328,2.525,IMU0,-6.04052734375,-3.3857421875,0.6064453125,-26.260504201680675,2294.3977591036414,189.14565826330534
329,2.535,IMU0,-6.1083984375,-3.4013671875,0.61669921875,-28.92156862745098,2294.3977591036414,189.49579831932775
330,2.545,IMU0,-6.228515625,-3.42578125,0.6025390625,-30.46218487394958,2294.3977591036414,189.35574229691878
331,2.555,IMU0,-6.3310546875,-3.37890625,0.65478515625,-33.19327731092437,2294.3977591036414,190.0560224089636
332,2.565,IMU0,-6.3193359375,-3.3564453125,0.7197265625,-32.28291316526611,2294.3977591036414,190.54621848739495
333,2.575,IMU0,-6.37939453125,-3.37548828125,0.6533203125,-34.103641456582636,2294.3977591036414,190.89635854341736
334,2.585,IMU0,-6.4228515625,-3.4111328125,0.65283203125,-34.31372549019608,2294.3977591036414,191.24649859943978
335,2.595,IMU0,-6.4521484375,-3.3955078125,0.6044921875,-36.5546218487395,2294.3977591036414,190.8263305322129
336,2.605,IMU0,-6.45751953125,-3.36181640625,0.61181640625,-37.95518207282913,2294.3977591036414,189.56582633053222
337,2.615,IMU0,-6.5166015625,-3.3701171875,0.55712890625,-38.72549019607843,2294.3977591036414,187.04481792717087
338,2.625,IMU0,-6.5478515625,-3.373046875,0.57666015625,-38.865546218487395,2294.3977591036414,184.2436974789916
339,2.635,IMU0,-6.58056640625,-3.328125,0.623046875,-35.364145658263304,2294.3977591036414,181.51260504201682
340,2.645,IMU0,-6.65625,-3.28955078125,0.6025390625,-32.63305322128852,2294.3977591036414,181.51260504201682
341,2.655,IMU0,-6.6552734375,-3.25390625,0.64501953125,-27.73109243697479,2294.3977591036414,182.98319327731093
342,2.665,IMU0,-6.70947265625,-3.248046875,0.61669921875,-25.210084033613448,2294.3977591036414,186.48459383753502
343,2.675,IMU0,-6.740234375,-3.24755859375,0.6171875,-23.599439775910366,2294.3977591036414,191.66666666666669
344,2.685,IMU0,-6.763671875,-3.24462890625,0.63232421875,-25.840336134453782,2294.3977591036414,194.60784313725492
345,2.695,IMU0,-6.81201171875,-3.22314453125,0.63525390625,-27.3109243697479,2294.3977591036414,196.84873949579833
346,2.705,IMU0,-6.81982421875,-3.24951171875,0.7041015625,-28.36134453781513,2294.3977591036414,197.40896358543418
347,2.715,IMU0,-6.908203125,-3.2763671875,0.75732421875,-32.703081232493,2294.3977591036414,196.84873949579833
348,2.725,IMU0,-6.9873046875,-3.3076171875,0.80224609375,-31.092436974789916,2294.3977591036414,196.84873949579833
349,2.735,IMU0,-7.06298828125,-3.24658203125,0.64599609375,-28.50140056022409,2294.3977591036414,198.73949579831933
350,2.745,IMU0,-7.29931640625,-3.3017578125,0.796875,-29.69187675070028,2294.3977591036414,203.57142857142858
351,2.755,IMU0,-7.24755859375,-3.25,0.74658203125,-31.862745098039216,2294.3977591036414,205.67226890756302
352,2.765,IMU0,-7.38134765625,-3.29248046875,0.7099609375,-34.66386554621849,2294.3977591036414,205.60224089635855
353,2.775,IMU0,-7.36279296875,-3.29638671875,0.7470703125,-37.04481792717087,2294.3977591036414,205.53221288515408
354,2.785,IMU0,-7.37548828125,-3.2705078125,0.7783203125,-40.19607843137255,2294.3977591036414,203.4313725490196
355,2.795,IMU0,-7.40576171875,-3.2314453125,0.76123046875,-38.23529411764706,2294.3977591036414,199.50980392156865
356,2.805,IMU0,-7.4814453125,-3.2333984375,0.6787109375,-35.57422969187675,2294.3977591036414,197.89915966386556
357,2.815,IMU0,-7.5224609375,-3.1884765625,0.75927734375,-33.61344537815126,2294.3977591036414,197.54901960784315
358,2.825,IMU0,-7.59716796875,-3.1708984375,0.77880859375,-30.532212885154063,2294.3977591036414,199.6498599439776
359,2.835,IMU0,-7.5966796875,-3.1611328125,0.748046875,-28.991596638655462,2294.3977591036414,203.71148459383755
360,2.845,IMU0,-7.57763671875,-3.17626953125,0.78076171875,-29.271708683473392,2294.3977591036414,206.9327731092437
361,2.855,IMU0,-7.6044921875,-3.1591796875,0.75634765625,-29.761904761904763,2294.3977591036414,209.10364145658264
362,2.865,IMU0,-7.685546875,-3.201171875,0.7685546875,-32.07282913165266,2294.3977591036414,209.52380952380955
363,2.875,IMU0,-7.75244140625,-3.2001953125,0.818359375,-33.26330532212885,2294.3977591036414,208.96358543417367
364,2.885,IMU0,-7.82958984375,-3.16552734375,0.83251953125,-33.26330532212885,2294.3977591036414,209.10364145658264
365,2.895,IMU0,-7.86572265625,-3.1728515625,0.8505859375,-31.51260504201681,2294.3977591036414,209.733893557423
366,2.905,IMU0,-7.935546875,-3.15087890625,0.83544921875,-32.49299719887955,2294.3977591036414,210.71428571428572
367,2.915,IMU0,-7.95166015625,-3.1708984375,0.8212890625,-32.63305322128852,2294.3977591036414,212.39495798319328
368,2.925,IMU0,-7.984375,-3.208984375,0.81787109375,-33.89355742296919,2294.3977591036414,212.95518207282913
369,2.935,IMU0,-8.0615234375,-3.203125,0.78515625,-33.333333333333336,2294.3977591036414,212.46498599439778
370,2.945,IMU0,-8.09912109375,-3.22314453125,0.8369140625,-35.22408963585434,2294.3977591036414,211.83473389355743
371,2.955,IMU0,-8.16015625,-3.21435546875,0.8330078125,-35.64425770308124,2294.3977591036414,211.76470588235296
372,2.965,IMU0,-8.18994140625,-3.21435546875,0.8408203125,-35.64425770308124,2294.3977591036414,211.76470588235296
373,2.975,IMU0,-8.18994140625,-3.16064453125,0.8408203125,-34.943977591036415,2294.3977591036414,211.90476190476193
374,2.985,IMU0,-8.19921875,-3.1240234375,0.85986328125,-34.31372549019608,2294.3977591036414,212.67507002801122
375,2.995,IMU0,-8.2509765625,-3.09814453125,0.83935546875,-32.983193277310924,2294.3977591036414,213.02521008403363
376,3.005,IMU0,-8.27880859375,-3.111328125,0.8310546875,-35.99439775910364,2294.3977591036414,214.2857142857143
377,3.015,IMU0,-8.314453125,-3.16748046875,0.86767578125,-31.022408963585434,2294.3977591036414,214.56582633053222
378,3.025,IMU0,-8.35400390625,-3.16552734375,0.9208984375,-29.901960784313726,2294.3977591036414,215.19607843137257
379,3.035,IMU0,-8.404296875,-3.15380859375,0.91455078125,-30.04201680672269,2294.3977591036414,216.80672268907563
380,3.045,IMU0,-8.50244140625,-3.107421875,0.9033203125,-29.341736694677873,2294.3977591036414,219.2577030812325
381,3.055,IMU0,-8.55810546875,-3.09033203125,0.89990234375,-31.51260504201681,2294.3977591036414,222.47899159663868
382,3.065,IMU0,-8.6396484375,-3.09716796875,0.90576171875,-34.03361344537815,2294.3977591036414,224.6498599439776
383,3.075,IMU0,-8.65380859375,-3.13134765625,0.89404296875,-38.445378151260506,2294.3977591036414,224.78991596638656
384,3.085,IMU0,-8.70556640625,-3.13818359375,0.89111328125,-42.296918767507,2294.3977591036414,222.82913165266106
385,3.095,IMU0,-8.7880859375,-3.091796875,0.9345703125,-39.49579831932773,2294.3977591036414,219.81792717086836
386,3.105,IMU0,-8.8134765625,-3.08984375,0.9482421875,-37.74509803921569,2294.3977591036414,217.7170868347339
387,3.115,IMU0,-8.88525390625,-3.09716796875,0.94580078125,-33.403361344537814,2294.3977591036414,217.22689075630254
388,3.125,IMU0,-8.96630859375,-3.07080078125,0.8603515625,-33.26330532212885,2294.3977591036414,219.6778711484594
389,3.135,IMU0,-8.955078125,-3.0625,0.91748046875,-30.3921568627451,2294.3977591036414,222.7591036414566
390,3.145,IMU0,-9.00439453125,-3.02197265625,0.91552734375,-32.212885154061624,2294.3977591036414,225.3501400560224
391,3.155,IMU0,-9.01220703125,-3.0556640625,0.984375,-33.19327731092437,2294.3977591036414,227.3109243697479
392,3.165,IMU0,-9.07373046875,-3.03564453125,0.99560546875,-35.294117647058826,2294.3977591036414,227.45098039215688
393,3.175,IMU0,-9.17138671875,-3.03076171875,1.033203125,-33.89355742296919,2294.3977591036414,227.52100840336135
394,3.185,IMU0,-9.22119140625,-3.07373046875,1.02783203125,-30.672268907563026,2294.3977591036414,228.8515406162465
395,3.195,IMU0,-9.31201171875,-3.0712890625,1.01220703125,-34.03361344537815,2294.3977591036414,231.86274509803923
396,3.205,IMU0,-9.3212890625,-3.0634765625,1.01220703125,-37.53501400560224,2294.3977591036414,233.4033613445378
397,3.215,IMU0,-9.41064453125,-3.01953125,1.01806640625,-39.98599439775911,2294.3977591036414,233.19327731092437
398,3.225,IMU0,-9.4423828125,-3.02294921875,1.00537109375,-41.1764705882353,2294.3977591036414,232.42296918767508
399,3.235,IMU0,-9.49658203125,-3.03271484375,1.03076171875,-39.56582633053222,2294.3977591036414,231.09243697478993
400,3.245,IMU0,-9.5107421875,-2.990234375,1.0400390625,-38.16526610644258,2294.3977591036414,229.97198879551823
401,3.255,IMU0,-9.48681640625,-3.01953125,1.0283203125,-36.134453781512605,2294.3977591036414,228.99159663865547
402,3.265,IMU0,-9.63623046875,-2.994140625,1.0107421875,-32.35294117647059,2294.3977591036414,229.13165266106444
403,3.275,IMU0,-9.63818359375,-3.02734375,0.97216796875,-31.1624649859944,2294.3977591036414,231.44257703081234
404,3.285,IMU0,-9.7138671875,-2.99072265625,1.03125,-34.80392156862745,2294.3977591036414,234.52380952380955
405,3.295,IMU0,-9.76220703125,-3.00732421875,1.02734375,-35.85434173669468,2294.3977591036414,236.624649859944
406,3.305,IMU0,-9.83544921875,-3.048828125,1.087890625,-34.45378151260504,2294.3977591036414,236.48459383753502
407,3.315,IMU0,-9.94873046875,-3.02978515625,1.03759765625,-38.095238095238095,2294.3977591036414,237.8151260504202
408,3.325,IMU0,-9.947265625,-3.001953125,1.09765625,-38.445378151260506,2294.3977591036414,238.79551820728292
409,3.335,IMU0,-10.025390625,-2.986328125,1.10693359375,-39.285714285714285,2294.3977591036414,239.2156862745098
410,3.345,IMU0,-10.01513671875,-3.0078125,1.08251953125,-37.39495798319328,2294.3977591036414,239.00560224089637
411,3.355,IMU0,-10.13134765625,-3.04248046875,1.1015625,-35.7843137254902,2294.3977591036414,238.4453781512605
412,3.365,IMU0,-10.1630859375,-2.9931640625,1.06103515625,-36.34453781512605,2294.3977591036414,239.56582633053222
413,3.375,IMU0,-10.13671875,-2.97412109375,1.0966796875,-39.21568627450981,2294.3977591036414,240.19607843137257
414,3.385,IMU0,-10.2255859375,-2.9208984375,1.1328125,-38.72549019607843,2294.3977591036414,239.77591036414566
415,3.395,IMU0,-10.29443359375,-2.943359375,1.02734375,-36.134453781512605,2294.3977591036414,240.68627450980392
416,3.405,IMU0,-10.39208984375,-2.94873046875,1.12939453125,-36.83473389355743,2294.3977591036414,241.1764705882353
417,3.415,IMU0,-10.4736328125,-2.9169921875,1.0966796875,-35.43417366946779,2294.3977591036414,242.92717086834736
418,3.425,IMU0,-10.4736328125,-2.9423828125,1.0654296875,-37.81512605042017,2294.3977591036414,246.77871148459386
419,3.435,IMU0,-10.4736328125,-2.9423828125,1.0654296875,-37.81512605042017,2294.3977591036414,246.77871148459386
420,3.445,IMU0,-10.533203125,-2.91455078125,1.154296875,-40.75630252100841,2294.3977591036414,246.07843137254903
421,3.455,IMU0,-10.640625,-2.94091796875,1.119140625,-44.04761904761905,2294.3977591036414,245.8683473389356
422,3.465,IMU0,-10.56982421875,-2.99755859375,1.14892578125,-43.13725490196079,2294.3977591036414,245.8683473389356
423,3.475,IMU0,-10.63330078125,-2.95361328125,1.2470703125,-40.68627450980392,2294.3977591036414,244.46778711484595
424,3.485,IMU0,-10.67724609375,-2.88232421875,1.1904296875,-35.15406162464986,2294.3977591036414,243.97759103641457
425,3.495,IMU0,-10.6962890625,-2.91845703125,1.150390625,-32.63305322128852,2294.3977591036414,246.218487394958
426,3.505,IMU0,-10.853515625,-2.919921875,1.17333984375,-33.61344537815126,2294.3977591036414,248.38935574229694
427,3.515,IMU0,-10.9453125,-2.9443359375,1.150390625,-36.5546218487395,2294.3977591036414,252.3109243697479
428,3.525,IMU0,-10.94921875,-2.96142578125,1.330078125,-39.00560224089636,2294.3977591036414,255.11204481792717
429,3.535,IMU0,-11.00732421875,-2.9580078125,1.326171875,-40.68627450980392,2294.3977591036414,255.3921568627451
430,3.545,IMU0,-11.00439453125,-2.98583984375,1.2998046875,-40.89635854341737,2294.3977591036414,255.18207282913167
431,3.555,IMU0,-11.1240234375,-2.9521484375,1.212890625,-38.58543417366947,2294.3977591036414,253.64145658263305
432,3.565,IMU0,-11.14794921875,-2.91943359375,1.1552734375,-39.35574229691877,2294.3977591036414,253.1512605042017
433,3.575,IMU0,-11.10986328125,-2.94140625,1.09765625,-46.70868347338936,2294.3977591036414,252.17086834733894
434,3.585,IMU0,-11.15576171875,-2.92822265625,1.1455078125,-40.89635854341737,2294.3977591036414,247.12885154061627
435,3.595,IMU0,-11.236328125,-2.916015625,1.10693359375,-39.77591036414566,2294.3977591036414,244.60784313725492
436,3.605,IMU0,-11.22021484375,-2.82275390625,1.19091796875,-36.5546218487395,2294.3977591036414,244.18767507002804
437,3.615,IMU0,-11.41357421875,-2.8427734375,1.1005859375,-30.11204481792717,2294.3977591036414,247.47899159663868
438,3.625,IMU0,-11.40087890625,-2.88720703125,1.13671875,-29.831932773109244,2294.3977591036414,254.34173669467788
439,3.635,IMU0,-11.4208984375,-2.93994140625,1.22900390625,-32.84313725490196,2294.3977591036414,260.0140056022409
440,3.645,IMU0,-11.40966796875,-2.9091796875,1.3251953125,-38.23529411764706,2294.3977591036414,262.11484593837537
441,3.655,IMU0,-11.5458984375,-2.896484375,1.37255859375,-41.87675070028011,2294.3977591036414,261.5546218487395
442,3.665,IMU0,-11.75537109375,-2.89990234375,1.388671875,-40.056022408963585,2294.3977591036414,262.7450980392157
443,3.675,IMU0,-11.87060546875,-2.837890625,1.37060546875,-43.0672268907563,2294.3977591036414,267.15686274509807
444,3.685,IMU0,-11.82958984375,-2.88427734375,1.35009765625,-44.747899159663866,2294.3977591036414,270.0980392156863
445,3.695,IMU0,-11.826171875,-2.92578125,1.3056640625,-50.0,2294.3977591036414,267.92717086834733
446,3.705,IMU0,-11.83740234375,-2.9287109375,1.30615234375,-53.29131652661064,2294.3977591036414,262.46498599439775
447,3.715,IMU0,-11.896484375,-2.8935546875,1.3369140625,-50.56022408963586,2294.3977591036414,255.60224089635855
448,3.725,IMU0,-11.98974609375,-2.8701171875,1.29833984375,-46.21848739495798,2294.3977591036414,252.59103641456585
449,3.735,IMU0,-12.09033203125,-2.81640625,1.2470703125,-37.95518207282913,2294.3977591036414,255.60224089635855
450,3.745,IMU0,-11.9580078125,-2.8271484375,1.21533203125,-36.904761904761905,2294.3977591036414,261.34453781512605
451,3.755,IMU0,-11.9755859375,-2.8759765625,1.30322265625,-36.484593837535016,2294.3977591036414,263.02521008403363
452,3.765,IMU0,-12.06201171875,-2.81689453125,1.3837890625,-40.12605042016807,2294.3977591036414,262.8851540616247
453,3.775,IMU0,-12.14501953125,-2.767578125,1.38427734375,-39.42577030812325,2294.3977591036414,264.4257703081233
454,3.785,IMU0,-12.2744140625,-2.77197265625,1.3857421875,-33.05322128851541,2294.3977591036414,268.9775910364146
455,3.795,IMU0,-12.2763671875,-2.8173828125,1.38525390625,-35.22408963585434,2294.3977591036414,272.47899159663865
456,3.805,IMU0,-12.35498046875,-2.89892578125,1.4111328125,-37.95518207282913,2294.3977591036414,273.59943977591035
457,3.815,IMU0,-12.41162109375,-2.88916015625,1.3896484375,-45.168067226890756,2294.3977591036414,272.6890756302521
458,3.825,IMU0,-12.46484375,-2.83642578125,1.39013671875,-46.498599439775916,2294.3977591036414,269.6778711484594
459,3.835,IMU0,-12.53173828125,-2.81982421875,1.36572265625,-42.997198879551824,2294.3977591036414,266.03641456582636
460,3.845,IMU0,-12.6142578125,-2.85205078125,1.341796875,-40.68627450980392,2294.3977591036414,264.91596638655466
461,3.855,IMU0,-12.701171875,-2.78759765625,1.3984375,-35.0140056022409,2294.3977591036414,265.26610644257704
462,3.865,IMU0,-12.72900390625,-2.7734375,1.36474609375,-33.54341736694678,2294.3977591036414,269.3977591036415
463,3.875,IMU0,-12.67431640625,-2.74462890625,1.4375,-35.294117647058826,2294.3977591036414,272.54901960784315
464,3.885,IMU0,-12.82470703125,-2.748046875,1.4423828125,-36.41456582633053,2294.3977591036414,272.8291316526611
465,3.895,IMU0,-12.82470703125,-2.748046875,1.4423828125,-36.41456582633053,2294.3977591036414,272.8291316526611
466,3.905,IMU0,-12.91162109375,-2.7412109375,1.408203125,-37.46498599439776,2294.3977591036414,273.4593837535014
467,3.915,IMU0,-12.97802734375,-2.76025390625,1.41650390625,-37.254901960784316,2294.3977591036414,274.3697478991597
468,3.925,IMU0,-12.99072265625,-2.712890625,1.45361328125,-42.577030812324935,2294.3977591036414,275.4901960784314
469,3.935,IMU0,-13.03369140625,-2.6728515625,1.47705078125,-41.1764705882353,2294.3977591036414,274.6498599439776
470,3.945,IMU0,-13.11083984375,-2.76171875,1.4697265625,-39.845938375350144,2294.3977591036414,273.4593837535014
471,3.955,IMU0,-13.26708984375,-2.7177734375,1.4794921875,-39.56582633053222,2294.3977591036414,274.08963585434174
472,3.965,IMU0,-13.234375,-2.6669921875,1.4150390625,-38.79551820728292,2294.3977591036414,276.47058823529414
473,3.975,IMU0,-13.30078125,-2.693359375,1.43994140625,-42.577030812324935,2294.3977591036414,277.52100840336135
474,3.985,IMU0,-13.34033203125,-2.685546875,1.4375,-40.406162464986,2294.3977591036414,275.21008403361344
475,3.995,IMU0,-13.4140625,-2.6806640625,1.44482421875,-41.52661064425771,2294.3977591036414,273.31932773109247
476,4.005,IMU0,-13.453125,-2.6298828125,1.41259765625,-40.476190476190474,2294.3977591036414,273.1792717086835
477,4.015,IMU0,-13.45654296875,-2.6689453125,1.435546875,-33.333333333333336,2294.3977591036414,273.59943977591035
478,4.025,IMU0,-13.529296875,-2.615234375,1.51806640625,-38.16526610644258,2294.3977591036414,276.5406162464986
479,4.035,IMU0,-13.54736328125,-2.603515625,1.4521484375,-37.885154061624654,2294.3977591036414,279.2717086834734
480,4.045,IMU0,-13.71142578125,-2.62841796875,1.5224609375,-39.21568627450981,2294.3977591036414,282.07282913165267
481,4.055,IMU0,-13.80859375,-2.66259765625,1.54052734375,-38.72549019607843,2294.3977591036414,284.3837535014006
482,4.065,IMU0,-13.8330078125,-2.66064453125,1.572265625,-43.767507002801125,2294.3977591036414,286.8347338935574
483,4.075,IMU0,-13.94775390625,-2.673828125,1.583984375,-43.62745098039216,2294.3977591036414,286.2745098039216
484,4.085,IMU0,-14.02197265625,-2.69970703125,1.4833984375,-45.86834733893558,2294.3977591036414,286.06442577030816
485,4.095,IMU0,-13.96533203125,-2.68115234375,1.54833984375,-42.85714285714286,2294.3977591036414,283.61344537815125
486,4.105,IMU0,-14.0078125,-2.61376953125,1.51123046875,-45.09803921568628,2294.3977591036414,279.6218487394958
487,4.115,IMU0,-13.998046875,-2.58056640625,1.5205078125,-38.445378151260506,2294.3977591036414,276.5406162464986
488,4.125,IMU0,-14.0673828125,-2.61083984375,1.5224609375,-33.89355742296919,2294.3977591036414,277.7310924369748
489,4.135,IMU0,-14.1875,-2.59423828125,1.4482421875,-31.722689075630253,2294.3977591036414,282.07282913165267
490,4.145,IMU0,-14.15966796875,-2.666015625,1.490234375,-34.103641456582636,2294.3977591036414,286.5546218487395
491,4.155,IMU0,-14.2275390625,-2.62353515625,1.5986328125,-42.577030812324935,2294.3977591036414,288.65546218487395
492,4.165,IMU0,-14.28515625,-2.59912109375,1.6005859375,-40.056022408963585,2294.3977591036414,288.2352941176471
493,4.175,IMU0,-14.45166015625,-2.60546875,1.61865234375,-37.81512605042017,2294.3977591036414,288.375350140056
494,4.185,IMU0,-14.64404296875,-2.59521484375,1.5703125,-40.826330532212886,2294.3977591036414,290.546218487395
495,4.195,IMU0,-14.5400390625,-2.5927734375,1.60595703125,-42.226890756302524,2294.3977591036414,293.9775910364146
496,4.205,IMU0,-14.60107421875,-2.603515625,1.57568359375,-47.47899159663866,2294.3977591036414,291.5966386554622
497,4.215,IMU0,-14.66162109375,-2.58056640625,1.52392578125,-47.26890756302521,2294.3977591036414,286.9047619047619
498,4.225,IMU0,-14.72705078125,-2.54248046875,1.54443359375,-44.187675070028014,2294.3977591036414,283.8235294117647
499,4.235,IMU0,-14.779296875,-2.4853515625,1.52880859375,-44.46778711484594,2294.3977591036414,283.5434173669468
500,4.245,IMU0,-14.69384765625,-2.50634765625,1.60400390625,-42.92717086834734,2294.3977591036414,285.29411764705884
501,4.255,IMU0,-14.744140625,-2.50830078125,1.5693359375,-37.95518207282913,2294.3977591036414,288.375350140056
502,4.265,IMU0,-14.67138671875,-2.525390625,1.62841796875,-37.675070028011206,2294.3977591036414,292.50700280112045
503,4.275,IMU0,-14.83154296875,-2.541015625,1.69580078125,-36.97478991596639,2294.3977591036414,293.5574229691877
504,4.285,IMU0,-14.94580078125,-2.5419921875,1.68408203125,-36.27450980392157,2294.3977591036414,296.35854341736695
505,4.295,IMU0,-15.0048828125,-2.5263671875,1.669921875,-36.62464985994398,2294.3977591036414,300.140056022409
506,4.305,IMU0,-15.16015625,-2.50244140625,1.6884765625,-40.406162464986,2294.3977591036414,301.05042016806726
507,4.315,IMU0,-15.14599609375,-2.5126953125,1.66015625,-53.78151260504202,2294.3977591036414,300.140056022409
508,4.325,IMU0,-15.2265625,-2.494140625,1.654296875,-49.50980392156863,2294.3977591036414,294.9579831932773
509,4.335,IMU0,-15.2568359375,-2.45654296875,1.60302734375,-44.81792717086835,2294.3977591036414,291.6666666666667
510,4.345,IMU0,-15.19091796875,-2.48876953125,1.6064453125,-41.87675070028011,2294.3977591036414,290.19607843137254
511,4.355,IMU0,-15.19287109375,-2.48876953125,1.6474609375,-41.87675070028011,2294.3977591036414,290.19607843137254
512,4.365,IMU0,-15.19287109375,-2.4580078125,1.6474609375,-33.4733893557423,2294.3977591036414,289.4257703081233
513,4.375,IMU0,-15.251953125,-2.43115234375,1.5654296875,-31.65266106442577,2294.3977591036414,292.3669467787115
514,4.385,IMU0,-15.3046875,-2.48046875,1.62158203125,-36.76470588235294,2294.3977591036414,296.7086834733894
515,4.395,IMU0,-15.4306640625,-2.484375,1.68408203125,-37.60504201680673,2294.3977591036414,299.5098039215686
516,4.405,IMU0,-15.51171875,-2.42431640625,1.67626953125,-35.50420168067227,2294.3977591036414,302.17086834733897
517,4.415,IMU0,-15.58154296875,-2.41650390625,1.7197265625,-39.35574229691877,2294.3977591036414,303.921568627451
518,4.425,IMU0,-15.74609375,-2.42236328125,1.71337890625,-40.26610644257703,2294.3977591036414,305.39215686274514
519,4.435,IMU0,-15.7568359375,-2.498046875,1.70263671875,-45.30812324929972,2294.3977591036414,307.07282913165267
520,4.445,IMU0,-15.80126953125,-2.42724609375,1.71533203125,-50.280112044817926,2294.3977591036414,306.1624649859944
521,4.455,IMU0,-15.81591796875,-2.4404296875,1.689453125,-50.21008403361345,2294.3977591036414,301.9607843137255
522,4.465,IMU0,-15.798828125,-2.45263671875,1.68505859375,-46.358543417366946,2294.3977591036414,297.12885154061627
523,4.475,IMU0,-15.75537109375,-2.39697265625,1.697265625,-43.27731092436975,2294.3977591036414,294.6778711484594
524,4.485,IMU0,-15.80712890625,-2.3134765625,1.68798828125,-38.16526610644258,2294.3977591036414,296.8487394957983
525,4.495,IMU0,-15.7724609375,-2.30615234375,1.666015625,-34.173669467787114,2294.3977591036414,300.7002801120448
526,4.505,IMU0,-15.859375,-2.35302734375,1.68505859375,-35.7843137254902,2294.3977591036414,306.44257703081234
527,4.515,IMU0,-15.88134765625,-2.36865234375,1.74609375,-40.54621848739496,2294.3977591036414,310.5742296918768
528,4.525,IMU0,-15.92236328125,-2.4140625,1.77392578125,-40.89635854341737,2294.3977591036414,310.29411764705884
529,4.535,IMU0,-15.9423828125,-2.3984375,1.78857421875,-39.98599439775911,2294.3977591036414,308.75350140056025
530,4.545,IMU0,-15.97607421875,-2.40185546875,1.81982421875,-41.87675070028011,2294.3977591036414,308.75350140056025
531,4.555,IMU0,-15.97607421875,-2.38037109375,1.76416015625,-44.537815126050425,2294.3977591036414,309.4537815126051
532,4.565,IMU0,-15.962890625,-2.36181640625,1.71240234375,-50.21008403361345,2294.3977591036414,309.03361344537814
533,4.575,IMU0,-15.9326171875,-2.31298828125,1.810546875,-44.187675070028014,2294.3977591036414,305.672268907563
534,4.585,IMU0,-15.9736328125,-2.22705078125,1.720703125,-39.77591036414566,2294.3977591036414,303.64145658263305
535,4.595,IMU0,-15.9873046875,-2.24169921875,1.767578125,-34.66386554621849,2294.3977591036414,304.5518207282913
536,4.605,IMU0,-15.98583984375,-2.255859375,1.7646484375,-31.1624649859944,2294.3977591036414,307.98319327731093
537,4.615,IMU0,-15.97314453125,-2.31103515625,1.74755859375,-32.703081232493,2294.3977591036414,313.09523809523813
538,4.625,IMU0,-15.9970703125,-2.29541015625,1.7939453125,-41.036414565826334,2294.3977591036414,315.4761904761905
539,4.635,IMU0,-15.9951171875,-2.345703125,1.85791015625,-44.67787114845939,2294.3977591036414,315.26610644257704
540,4.645,IMU0,-15.9970703125,-2.3603515625,1.845703125,-40.406162464986,2294.3977591036414,314.6358543417367
541,4.655,IMU0,-15.998046875,-2.28369140625,1.88330078125,-41.246498599439775,2294.3977591036414,315.4761904761905
542,4.665,IMU0,-15.998046875,-2.232421875,1.86865234375,-45.23809523809524,2294.3977591036414,316.52661064425774
543,4.675,IMU0,-15.998046875,-2.2529296875,1.75390625,-47.89915966386555,2294.3977591036414,316.38655462184875
544,4.685,IMU0,-15.998046875,-2.28125,1.79443359375,-48.59943977591037,2294.3977591036414,313.58543417366946
545,4.695,IMU0,-15.998046875,-2.18603515625,1.8447265625,-46.568627450980394,2294.3977591036414,309.9439775910364
546,4.705,IMU0,-15.998046875,-2.12841796875,1.85107421875,-42.296918767507,2294.3977591036414,309.3837535014006
547,4.715,IMU0,-15.998046875,-2.12939453125,1.80615234375,-40.056022408963585,2294.3977591036414,312.60504201680675
548,4.725,IMU0,-15.998046875,-2.19384765625,1.796875,-36.83473389355743,2294.3977591036414,317.08683473389357
549,4.735,IMU0,-15.998046875,-2.1982421875,1.86328125,-41.45658263305322,2294.3977591036414,320.0280112044818
550,4.745,IMU0,-15.998046875,-2.18603515625,1.91552734375,-43.69747899159664,2294.3977591036414,320.5882352941177
551,4.755,IMU0,-15.998046875,-2.15625,1.93359375,-42.577030812324935,2294.3977591036414,321.1484593837535
552,4.765,IMU0,-15.998046875,-2.10498046875,1.95068359375,-43.55742296918768,2294.3977591036414,324.15966386554624
553,4.775,IMU0,-15.998046875,-2.07421875,1.93310546875,-45.378151260504204,2294.3977591036414,325.7703081232493
554,4.785,IMU0,-15.998046875,-2.06005859375,1.95068359375,-52.38095238095239,2294.3977591036414,323.73949579831935
555,4.795,IMU0,-15.998046875,-1.97216796875,1.986328125,-55.602240896358545,2294.3977591036414,318.76750700280115
556,4.805,IMU0,-15.998046875,-1.85595703125,1.83837890625,-46.918767507002805,2294.3977591036414,316.52661064425774
557,4.815,IMU0,-15.998046875,-1.84375,1.84033203125,-45.02801120448179,2294.3977591036414,318.34733893557427
558,4.825,IMU0,-15.998046875,-1.84375,1.84033203125,-45.02801120448179,2294.3977591036414,318.34733893557427
559,4.835,IMU0,-15.998046875,-1.7216796875,1.88671875,-40.54621848739496,2294.3977591036414,320.0280112044818
560,4.845,IMU0,-15.998046875,-1.64794921875,1.8984375,-40.96638655462185,2294.3977591036414,320.4481792717087
561,4.855,IMU0,-15.998046875,-1.5830078125,1.97998046875,-42.08683473389356,2294.3977591036414,320.86834733893556
562,4.865,IMU0,-15.998046875,-1.49365234375,2.03369140625,-39.635854341736696,2294.3977591036414,323.4593837535014
563,4.875,IMU0,-15.998046875,-1.35546875,2.080078125,-38.30532212885154,2294.3977591036414,329.5518207282913
564,4.885,IMU0,-15.998046875,-1.267578125,2.0380859375,-39.845938375350144,2294.3977591036414,334.87394957983196
565,4.895,IMU0,-15.998046875,-1.212890625,2.1083984375,-47.689075630252105,2294.3977591036414,335.0140056022409
566,4.905,IMU0,-15.998046875,-1.08837890625,2.06982421875,-48.24929971988796,2294.3977591036414,329.76190476190476
567,4.915,IMU0,-15.998046875,-0.9404296875,2.08056640625,-47.89915966386555,2294.3977591036414,323.9495798319328
568,4.925,IMU0,-15.998046875,-0.7705078125,2.02001953125,-44.957983193277315,2294.3977591036414,322.19887955182077
569,4.935,IMU0,-15.998046875,-0.64794921875,2.01953125,-42.016806722689076,2294.3977591036414,325.4201680672269
570,4.945,IMU0,-15.998046875,-0.54833984375,2.056640625,-40.54621848739496,2294.3977591036414,329.13165266106444
571,4.955,IMU0,-15.998046875,-0.45458984375,2.11181640625,-44.747899159663866,2294.3977591036414,331.37254901960785
572,4.965,IMU0,-15.998046875,-0.31640625,2.19580078125,-40.19607843137255,2294.3977591036414,331.8627450980392
573,4.975,IMU0,-15.998046875,-0.22412109375,2.2529296875,-43.55742296918768,2294.3977591036414,334.3837535014006
574,4.985,IMU0,-15.998046875,-0.14013671875,2.27880859375,-47.05882352941177,2294.3977591036414,338.72549019607845
575,4.995,IMU0,-15.998046875,-0.07177734375,2.3154296875,-48.24929971988796,2294.3977591036414,341.8067226890756
576,5.005,IMU0,-15.998046875,-0.00634765625,2.37939453125,-54.831932773109244,2294.3977591036414,341.8767507002801
577,5.015,IMU0,-15.998046875,0.0859375,2.36474609375,-50.63025210084034,2294.3977591036414,338.72549019607845
578,5.025,IMU0,-15.998046875,0.1923828125,2.3564453125,-51.12044817927171,2294.3977591036414,335.4341736694678
579,5.035,IMU0,-15.998046875,0.2958984375,2.34130859375,-51.89075630252101,2294.3977591036414,334.3837535014006
580,5.045,IMU0,-15.998046875,0.376953125,2.33154296875,-45.02801120448179,2294.3977591036414,335.7843137254902
581,5.055,IMU0,-15.998046875,0.4775390625,2.42041015625,-44.32773109243698,2294.3977591036414,339.21568627450984
582,5.065,IMU0,-15.998046875,0.541015625,2.4638671875,-43.767507002801125,2294.3977591036414,344.467787114846
583,5.075,IMU0,-15.998046875,0.54296875,2.51611328125,-47.82913165266107,2294.3977591036414,350.0700280112045
584,5.085,IMU0,-15.998046875,0.58740234375,2.6259765625,-56.09243697478992,2294.3977591036414,352.03081232492997
585,5.095,IMU0,-15.998046875,0.61865234375,2.625,-52.38095238095239,2294.3977591036414,349.78991596638656
586,5.105,IMU0,-15.998046875,0.64892578125,2.64208984375,-59.03361344537815,2294.3977591036414,349.08963585434174
587,5.115,IMU0,-15.998046875,0.7041015625,2.65673828125,-58.12324929971989,2294.3977591036414,349.4397759103642
588,5.125,IMU0,-15.998046875,0.68994140625,2.6416015625,-53.29131652661064,2294.3977591036414,349.5098039215686
589,5.135,IMU0,-15.998046875,0.72265625,2.78466796875,-53.43137254901961,2294.3977591036414,347.05882352941177
590,5.145,IMU0,-15.998046875,0.81640625,2.82666015625,-45.65826330532213,2294.3977591036414,343.34733893557427
591,5.155,IMU0,-15.998046875,0.8427734375,2.7763671875,-40.89635854341737,2294.3977591036414,346.2885154061625
592,5.165,IMU0,-15.998046875,0.8505859375,2.70263671875,-43.207282913165265,2294.3977591036414,352.10084033613447
593,5.175,IMU0,-15.998046875,0.84130859375,2.75927734375,-46.28851540616247,2294.3977591036414,353.3613445378151
594,5.185,IMU0,-15.998046875,0.8466796875,2.7822265625,-41.45658263305322,2294.3977591036414,351.2605042016807
595,5.195,IMU0,-15.998046875,0.8837890625,2.81298828125,-36.62464985994398,2294.3977591036414,347.4089635854342
596,5.205,IMU0,-15.998046875,0.90673828125,2.73388671875,-42.436974789915965,2294.3977591036414,345.30812324929974
597,5.215,IMU0,-15.998046875,0.931640625,2.583984375,-48.529411764705884,2294.3977591036414,345.7282913165266
598,5.225,IMU0,-15.998046875,0.919921875,2.55908203125,-46.918767507002805,2294.3977591036414,345.37815126050424
599,5.235,IMU0,-15.998046875,0.92431640625,2.61669921875,-45.65826330532213,2294.3977591036414,342.50700280112045
600,5.245,IMU0,-15.998046875,0.955078125,2.68017578125,-36.97478991596639,2294.3977591036414,340.33613445378154
601,5.255,IMU0,-15.998046875,0.97509765625,2.6953125,-38.655462184873954,2294.3977591036414,341.9467787114846
602,5.265,IMU0,-15.998046875,0.99560546875,2.67919921875,-36.41456582633053,2294.3977591036414,346.07843137254906
603,5.275,IMU0,-15.998046875,0.97412109375,2.71337890625,-36.41456582633053,2294.3977591036414,350.7002801120448
604,5.285,IMU0,-15.998046875,0.97412109375,2.71337890625,-36.41456582633053,2294.3977591036414,350.7002801120448
605,5.295,IMU0,-15.998046875,0.94189453125,2.7216796875,-43.417366946778714,2294.3977591036414,352.17086834733897
606,5.305,IMU0,-15.998046875,0.94873046875,2.798828125,-41.246498599439775,2294.3977591036414,349.7198879551821
607,5.315,IMU0,-15.998046875,0.9560546875,2.79150390625,-33.26330532212885,2294.3977591036414,346.5686274509804
608,5.325,IMU0,-15.998046875,0.97216796875,2.68798828125,-34.38375350140056,2294.3977591036414,347.05882352941177
609,5.335,IMU0,-15.998046875,0.95654296875,2.615234375,-41.52661064425771,2294.3977591036414,349.5798319327731
610,5.345,IMU0,-15.998046875,0.9375,2.6474609375,-44.25770308123249,2294.3977591036414,346.49859943977594
611,5.355,IMU0,-15.998046875,0.96630859375,2.67626953125,-38.37535014005602,2294.3977591036414,342.08683473389357
612,5.365,IMU0,-15.998046875,1.02099609375,2.796875,-33.68347338935575,2294.3977591036414,339.84593837535016
613,5.375,IMU0,-15.998046875,1.0361328125,2.7255859375,-29.551820728291318,2294.3977591036414,342.50700280112045
614,5.385,IMU0,-15.998046875,1.00927734375,2.7021484375,-28.781512605042018,2294.3977591036414,348.9495798319328
615,5.395,IMU0,-15.998046875,0.9658203125,2.71337890625,-34.943977591036415,2294.3977591036414,353.1512605042017
616,5.405,IMU0,-15.998046875,0.953125,2.7392578125,-39.56582633053222,2294.3977591036414,351.9607843137255
617,5.415,IMU0,-15.998046875,0.9619140625,2.80224609375,-41.73669467787115,2294.3977591036414,347.47899159663865
618,5.425,IMU0,-15.998046875,1.0048828125,2.7353515625,-29.971988795518207,2294.3977591036414,344.04761904761904
619,5.435,IMU0,-15.998046875,0.99462890625,2.67822265625,-38.30532212885154,2294.3977591036414,345.5882352941177
620,5.445,IMU0,-15.998046875,0.9677734375,2.6552734375,-38.51540616246499,2294.3977591036414,345.6582633053221
621,5.455,IMU0,-15.998046875,0.966796875,2.62646484375,-39.70588235294118,2294.3977591036414,344.6078431372549
622,5.465,IMU0,-15.998046875,0.97802734375,2.6962890625,-34.03361344537815,2294.3977591036414,340.96638655462186
623,5.475,IMU0,-15.998046875,1.00634765625,2.66162109375,-34.59383753501401,2294.3977591036414,339.9859943977591
624,5.485,IMU0,-15.998046875,1.009765625,2.6201171875,-32.49299719887955,2294.3977591036414,342.15686274509807
625,5.495,IMU0,-15.998046875,0.9970703125,2.63623046875,-29.831932773109244,2294.3977591036414,344.74789915966386
626,5.505,IMU0,-15.998046875,0.9814453125,2.708984375,-34.2436974789916,2294.3977591036414,346.6386554621849
627,5.515,IMU0,-15.998046875,0.98388671875,2.7919921875,-32.35294117647059,2294.3977591036414,346.35854341736695
628,5.525,IMU0,-15.998046875,0.9736328125,2.74560546875,-30.532212885154063,2294.3977591036414,346.42857142857144
629,5.535,IMU0,-15.9892578125,0.9638671875,2.71826171875,-30.672268907563026,2294.3977591036414,346.42857142857144
630,5.545,IMU0,-15.99609375,0.96533203125,2.6396484375,-33.12324929971989,2294.3977591036414,345.4481792717087
631,5.555,IMU0,-15.99755859375,0.943359375,2.5859375,-34.943977591036415,2294.3977591036414,343.69747899159665
632,5.565,IMU0,-15.99560546875,0.95458984375,2.63525390625,-38.51540616246499,2294.3977591036414,339.77591036414566
633,5.575,IMU0,-15.98291015625,0.98779296875,2.6005859375,-35.57422969187675,2294.3977591036414,336.624649859944
634,5.585,IMU0,-15.96630859375,0.9951171875,2.603515625,-27.17086834733894,2294.3977591036414,336.48459383753504
635,5.595,IMU0,-15.9765625,1.0,2.5625,-25.560224089635856,2294.3977591036414,339.0056022408964
636,5.605,IMU0,-15.939453125,0.974609375,2.61474609375,-23.73949579831933,2294.3977591036414,342.01680672268907
637,5.615,IMU0,-15.9716796875,0.96142578125,2.64990234375,-30.252100840336137,2294.3977591036414,342.436974789916
638,5.625,IMU0,-15.9775390625,0.9658203125,2.62841796875,-32.07282913165266,2294.3977591036414,342.296918767507
639,5.635,IMU0,-15.9833984375,0.96337890625,2.62890625,-31.1624649859944,2294.3977591036414,340.1260504201681
640,5.645,IMU0,-15.96142578125,0.95556640625,2.6103515625,-33.4733893557423,2294.3977591036414,341.1064425770308
641,5.655,IMU0,-15.9580078125,0.96142578125,2.62158203125,-29.901960784313726,2294.3977591036414,340.96638655462186
642,5.665,IMU0,-15.89794921875,0.931640625,2.5751953125,-25.140056022408963,2294.3977591036414,340.546218487395
643,5.675,IMU0,-15.92822265625,0.939453125,2.5888671875,-31.862745098039216,2294.3977591036414,338.79551820728295
644,5.685,IMU0,-15.89794921875,0.943359375,2.51416015625,-33.4733893557423,2294.3977591036414,336.624649859944
645,5.695,IMU0,-15.87841796875,0.94189453125,2.59375,-32.35294117647059,2294.3977591036414,334.73389355742296
646,5.705,IMU0,-15.87158203125,0.96728515625,2.544921875,-31.442577030812327,2294.3977591036414,334.80392156862746
647,5.715,IMU0,-15.8173828125,0.95361328125,2.51904296875,-30.672268907563026,2294.3977591036414,336.2044817927171
648,5.725,IMU0,-15.82861328125,0.94677734375,2.51123046875,-26.050420168067227,2294.3977591036414,337.04481792717087
649,5.735,IMU0,-15.81396484375,0.927734375,2.53271484375,-28.151260504201684,2294.3977591036414,337.3949579831933
650,5.745,IMU0,-15.77587890625,0.927734375,2.54443359375,-28.151260504201684,2294.3977591036414,337.3949579831933
651,5.755,IMU0,-15.77587890625,0.91748046875,2.54443359375,-25.07002801120448,2294.3977591036414,335.6442577030812
652,5.765,IMU0,-15.7275390625,0.923828125,2.52685546875,-31.232492997198882,2294.3977591036414,335.1540616246499
653,5.775,IMU0,-15.67431640625,0.923828125,2.5283203125,-31.1624649859944,2294.3977591036414,333.75350140056025
654,5.785,IMU0,-15.6376953125,0.92333984375,2.46435546875,-31.1624649859944,2294.3977591036414,332.98319327731093
655,5.795,IMU0,-15.5546875,0.91259765625,2.48828125,-29.971988795518207,2294.3977591036414,332.14285714285717
656,5.805,IMU0,-15.51806640625,0.91796875,2.4775390625,-32.913165266106446,2294.3977591036414,331.2324929971989
657,5.815,IMU0,-15.5244140625,0.931640625,2.46337890625,-28.8515406162465,2294.3977591036414,332.00280112044817
658,5.825,IMU0,-15.447265625,0.9228515625,2.5185546875,-26.750700280112046,2294.3977591036414,332.63305322128855
659,5.835,IMU0,-15.40771484375,0.9208984375,2.55419921875,-26.5406162464986,2294.3977591036414,332.703081232493
660,5.845,IMU0,-15.33984375,0.9091796875,2.45751953125,-24.229691876750703,2294.3977591036414,333.1932773109244
661,5.855,IMU0,-15.31982421875,0.90869140625,2.451171875,-31.022408963585434,2294.3977591036414,333.12324929971993
662,5.865,IMU0,-15.3046875,0.90283203125,2.40283203125,-34.943977591036415,2294.3977591036414,331.7226890756303
663,5.875,IMU0,-15.27294921875,0.8955078125,2.41455078125,-31.372549019607845,2294.3977591036414,329.13165266106444
664,5.885,IMU0,-15.2412109375,0.8916015625,2.47265625,-32.49299719887955,2294.3977591036414,327.66106442577035
665,5.895,IMU0,-15.17041015625,0.919921875,2.52392578125,-27.100840336134453,2294.3977591036414,326.7507002801121
666,5.905,IMU0,-15.12158203125,0.91845703125,2.46435546875,-24.299719887955185,2294.3977591036414,328.64145658263305
667,5.915,IMU0,-15.02099609375,0.8984375,2.4033203125,-24.50980392156863,2294.3977591036414,331.8627450980392
668,5.925,IMU0,-15.0068359375,0.8740234375,2.4013671875,-28.781512605042018,2294.3977591036414,332.3529411764706
669,5.935,IMU0,-14.90625,0.849609375,2.4091796875,-30.952380952380953,2294.3977591036414,328.921568627451
670,5.945,IMU0,-14.9169921875,0.8720703125,2.4169921875,-33.753501400560225,2294.3977591036414,324.15966386554624
671,5.955,IMU0,-14.91796875,0.8974609375,2.3642578125,-27.871148459383754,2294.3977591036414,321.49859943977594
672,5.965,IMU0,-14.85302734375,0.90380859375,2.37548828125,-23.80952380952381,2294.3977591036414,322.8291316526611
673,5.975,IMU0,-14.76953125,0.8828125,2.3291015625,-21.008403361344538,2294.3977591036414,324.4397759103642
674,5.985,IMU0,-14.66748046875,0.87060546875,2.3173828125,-27.941176470588236,2294.3977591036414,325.6302521008403
675,5.995,IMU0,-14.609375,0.8740234375,2.3818359375,-28.011204481792717,2294.3977591036414,323.5294117647059
676,6.005,IMU0,-14.6142578125,0.8837890625,2.3701171875,-25.35014005602241,2294.3977591036414,321.42857142857144
677,6.015,IMU0,-14.58740234375,0.9052734375,2.3662109375,-25.7703081232493,2294.3977591036414,321.7787114845938
678,6.025,IMU0,-14.572265625,0.9052734375,2.3359375,-23.529411764705884,2294.3977591036414,322.96918767507003
679,6.035,IMU0,-14.54345703125,0.8935546875,2.30908203125,-26.47058823529412,2294.3977591036414,325.5602240896359
680,6.045,IMU0,-14.53125,0.86279296875,2.357421875,-29.6218487394958,2294.3977591036414,325.7703081232493
681,6.055,IMU0,-14.46630859375,0.85595703125,2.36865234375,-28.291316526610647,2294.3977591036414,325.0700280112045
682,6.065,IMU0,-14.4296875,0.8544921875,2.361328125,-33.68347338935575,2294.3977591036414,323.31932773109247
683,6.075,IMU0,-14.4580078125,0.87109375,2.296875,-30.3921568627451,2294.3977591036414,321.2885154061625
684,6.085,IMU0,-14.4072265625,0.86328125,2.30419921875,-29.761904761904763,2294.3977591036414,320.37815126050424
685,6.095,IMU0,-14.33447265625,0.85791015625,2.27587890625,-32.00280112044818,2294.3977591036414,320.0280112044818
686,6.105,IMU0,-14.2470703125,0.853515625,2.24609375,-31.022408963585434,2294.3977591036414,319.11764705882354
687,6.115,IMU0,-14.19580078125,0.86181640625,2.28369140625,-33.89355742296919,2294.3977591036414,317.3669467787115
688,6.125,IMU0,-14.14794921875,0.890625,2.275390625,-24.229691876750703,2294.3977591036414,315.6162464985995
689,6.135,IMU0,-14.11962890625,0.888671875,2.3154296875,-21.638655462184875,2294.3977591036414,317.15686274509807
690,6.145,IMU0,-14.1318359375,0.892578125,2.26416015625,-20.028011204481793,2294.3977591036414,320.5182072829132
691,6.155,IMU0,-14.06494140625,0.86083984375,2.25439453125,-20.378151260504204,2294.3977591036414,323.8795518207283
692,6.165,IMU0,-14.080078125,0.826171875,2.24658203125,-31.51260504201681,2294.3977591036414,323.8095238095238
693,6.175,IMU0,-14.03076171875,0.8251953125,2.2431640625,-30.81232492997199,2294.3977591036414,320.7983193277311
694,6.185,IMU0,-14.0185546875,0.82421875,2.30029296875,-28.711484593837536,2294.3977591036414,316.31652661064425
695,6.195,IMU0,-14.08837890625,0.869140625,2.2529296875,-27.801120448179272,2294.3977591036414,313.1652661064426
696,6.205,IMU0,-13.98583984375,0.85400390625,2.2060546875,-25.35014005602241,2294.3977591036414,315.0560224089636
697,6.215,IMU0,-13.98583984375,0.85400390625,2.2060546875,-25.35014005602241,2294.3977591036414,315.0560224089636
698,6.225,IMU0,-13.90673828125,0.853515625,2.220703125,-22.128851540616246,2294.3977591036414,315.6162464985995
699,6.235,IMU0,-13.83984375,0.84619140625,2.12158203125,-25.420168067226893,2294.3977591036414,315.6162464985995
700,6.245,IMU0,-13.7568359375,0.8310546875,2.19189453125,-25.07002801120448,2294.3977591036414,313.72549019607845
701,6.255,IMU0,-13.70361328125,0.8466796875,2.31396484375,-24.57983193277311,2294.3977591036414,310.22408963585434
702,6.265,IMU0,-13.6533203125,0.8740234375,2.2939453125,-21.9187675070028,2294.3977591036414,310.4341736694678
703,6.275,IMU0,-13.58935546875,0.8759765625,2.17626953125,-15.756302521008404,2294.3977591036414,314.3557422969188
704,6.285,IMU0,-13.67431640625,0.8525390625,2.16943359375,-13.795518207282914,2294.3977591036414,318.76750700280115
705,6.295,IMU0,-13.62744140625,0.814453125,2.166015625,-22.128851540616246,2294.3977591036414,321.9187675070028
706,6.305,IMU0,-13.60107421875,0.7822265625,2.236328125,-27.17086834733894,2294.3977591036414,318.76750700280115
707,6.315,IMU0,-13.55712890625,0.80322265625,2.2783203125,-32.983193277310924,2294.3977591036414,312.3949579831933
708,6.325,IMU0,-13.53369140625,0.83056640625,2.2265625,-27.591036414565828,2294.3977591036414,307.49299719887955
709,6.335,IMU0,-13.5263671875,0.85693359375,2.12841796875,-21.498599439775912,2294.3977591036414,306.7226890756303
710,6.345,IMU0,-13.458984375,0.8359375,2.0146484375,-21.568627450980394,2294.3977591036414,309.73389355742296
711,6.355,IMU0,-13.33544921875,0.82275390625,2.06591796875,-24.159663865546218,2294.3977591036414,310.5742296918768
712,6.365,IMU0,-13.271484375,0.81982421875,2.1689453125,-24.229691876750703,2294.3977591036414,307.703081232493
713,6.375,IMU0,-13.248046875,0.84765625,2.2255859375,-19.257703081232496,2294.3977591036414,304.6918767507003
714,6.385,IMU0,-13.2412109375,0.87548828125,2.19287109375,-13.515406162464986,2294.3977591036414,305.7422969187675
715,6.395,IMU0,-13.24267578125,0.8720703125,2.09619140625,-12.394957983193278,2294.3977591036414,311.06442577030816
716,6.405,IMU0,-13.232421875,0.8251953125,2.08447265625,-17.22689075630252,2294.3977591036414,316.1764705882353
717,6.415,IMU0,-13.16357421875,0.7734375,2.10400390625,-23.599439775910366,2294.3977591036414,316.8067226890756
718,6.425,IMU0,-13.12646484375,0.7734375,2.21044921875,-26.96078431372549,2294.3977591036414,311.624649859944
719,6.435,IMU0,-13.09033203125,0.79736328125,2.17529296875,-24.50980392156863,2294.3977591036414,305.39215686274514
720,6.445,IMU0,-13.1279296875,0.81884765625,2.09423828125,-25.07002801120448,2294.3977591036414,304.13165266106444
721,6.455,IMU0,-13.12646484375,0.8134765625,2.05517578125,-21.708683473389357,2294.3977591036414,305.88235294117646
722,6.465,IMU0,-13.0283203125,0.80517578125,2.07275390625,-23.249299719887958,2294.3977591036414,307.843137254902
723,6.475,IMU0,-12.93505859375,0.78857421875,2.0283203125,-26.400560224089638,2294.3977591036414,307.3529411764706
724,6.485,IMU0,-12.8994140625,0.783203125,2.0419921875,-24.369747899159666,2294.3977591036414,304.76190476190476
725,6.495,IMU0,-12.88330078125,0.80810546875,2.0673828125,-25.28011204481793,2294.3977591036414,300.98039215686276
726,6.505,IMU0,-12.8818359375,0.82666015625,2.00634765625,-17.296918767507005,2294.3977591036414,300.0
727,6.515,IMU0,-12.84228515625,0.8310546875,2.005859375,-19.46778711484594,2294.3977591036414,301.9607843137255
728,6.525,IMU0,-12.771484375,0.80859375,2.06982421875,-18.837535014005603,2294.3977591036414,303.64145658263305
729,6.535,IMU0,-12.72412109375,0.8095703125,2.060546875,-17.086834733893557,2294.3977591036414,304.4117647058824
730,6.545,IMU0,-12.7080078125,0.80126953125,2.02001953125,-17.366946778711487,2294.3977591036414,304.6218487394958
731,6.555,IMU0,-12.66455078125,0.78173828125,2.03076171875,-19.607843137254903,2294.3977591036414,305.25210084033614
732,6.565,IMU0,-12.63671875,0.7880859375,2.0537109375,-21.708683473389357,2294.3977591036414,304.6218487394958
733,6.575,IMU0,-12.63134765625,0.7822265625,2.044921875,-20.448179271708685,2294.3977591036414,303.4313725490196
734,6.585,IMU0,-12.59228515625,0.779296875,2.083984375,-21.9187675070028,2294.3977591036414,302.52100840336135
735,6.595,IMU0,-12.60302734375,0.7958984375,2.02392578125,-25.35014005602241,2294.3977591036414,302.17086834733897
736,6.605,IMU0,-12.48486328125,0.78125,2.01123046875,-21.84873949579832,2294.3977591036414,301.33053221288515
737,6.615,IMU0,-12.48583984375,0.775390625,1.94677734375,-22.54901960784314,2294.3977591036414,300.28011204481794
738,6.625,IMU0,-12.46337890625,0.76806640625,1.95947265625,-24.159663865546218,2294.3977591036414,299.0196078431373
739,6.635,IMU0,-12.4423828125,0.7734375,1.99267578125,-24.57983193277311,2294.3977591036414,297.47899159663865
740,6.645,IMU0,-12.43310546875,0.7822265625,1.9638671875,-23.949579831932773,2294.3977591036414,297.3389355742297
741,6.655,IMU0,-12.328125,0.78955078125,1.93701171875,-20.518207282913167,2294.3977591036414,297.47899159663865
742,6.665,IMU0,-12.30517578125,0.77099609375,1.93603515625,-19.39775910364146,2294.3977591036414,297.61904761904765
743,6.675,IMU0,-12.30517578125,0.77099609375,1.93603515625,-19.39775910364146,2294.3977591036414,297.61904761904765
744,6.685,IMU0,-12.23291015625,0.7734375,1.95751953125,-17.99719887955182,2294.3977591036414,297.2689075630252
745,6.695,IMU0,-12.236328125,0.77783203125,2.05908203125,-20.028011204481793,2294.3977591036414,296.7086834733894
746,6.705,IMU0,-12.28515625,0.79345703125,1.966796875,-16.876750700280112,2294.3977591036414,297.6890756302521
747,6.715,IMU0,-12.19140625,0.77978515625,1.9482421875,-17.22689075630252,2294.3977591036414,300.98039215686276
748,6.725,IMU0,-12.23828125,0.7568359375,1.9248046875,-20.448179271708685,2294.3977591036414,302.03081232492997
749,6.735,IMU0,-12.18994140625,0.734375,1.92431640625,-26.330532212885156,2294.3977591036414,301.33053221288515
750,6.745,IMU0,-12.2587890625,0.73486328125,2.03466796875,-25.7703081232493,2294.3977591036414,297.19887955182077
751,6.755,IMU0,-12.271484375,0.765625,1.921875,-22.759103641456583,2294.3977591036414,294.74789915966386
752,6.765,IMU0,-12.15380859375,0.75341796875,1.8984375,-20.518207282913167,2294.3977591036414,295.30812324929974
753,6.775,IMU0,-12.138671875,0.7421875,1.91259765625,-25.0,2294.3977591036414,294.9579831932773
754,6.785,IMU0,-12.01123046875,0.744140625,1.90234375,-21.498599439775912,2294.3977591036414,293.06722689075633
755,6.795,IMU0,-11.98583984375,0.767578125,1.94482421875,-19.607843137254903,2294.3977591036414,290.26610644257704
756,6.805,IMU0,-12.04248046875,0.79052734375,1.86474609375,-15.826330532212886,2294.3977591036414,290.19607843137254
757,6.815,IMU0,-12.02001953125,0.78564453125,1.8916015625,-14.705882352941178,2294.3977591036414,293.8375350140056
758,6.825,IMU0,-11.99853515625,0.75244140625,1.884765625,-17.366946778711487,2294.3977591036414,297.19887955182077
759,6.835,IMU0,-11.87060546875,0.724609375,1.97265625,-18.487394957983195,2294.3977591036414,298.1792717086835
760,6.845,IMU0,-11.83154296875,0.734375,1.98583984375,-18.557422969187677,2294.3977591036414,295.7983193277311
761,6.855,IMU0,-11.85498046875,0.73974609375,1.9560546875,-21.42857142857143,2294.3977591036414,293.8375350140056
762,6.865,IMU0,-11.8369140625,0.7568359375,1.94189453125,-20.448179271708685,2294.3977591036414,293.2773109243698
763,6.875,IMU0,-11.841796875,0.7626953125,1.85693359375,-20.028011204481793,2294.3977591036414,294.5378151260504
764,6.885,IMU0,-11.7998046875,0.7236328125,1.86669921875,-23.10924369747899,2294.3977591036414,295.30812324929974
765,6.895,IMU0,-11.7412109375,0.71875,1.91357421875,-24.649859943977592,2294.3977591036414,293.4873949579832
766,6.905,IMU0,-11.759765625,0.720703125,1.88916015625,-23.31932773109244,2294.3977591036414,290.19607843137254
767,6.915,IMU0,-11.72021484375,0.734375,1.865234375,-22.268907563025213,2294.3977591036414,288.09523809523813
768,6.925,IMU0,-11.69287109375,0.72900390625,1.8291015625,-20.168067226890756,2294.3977591036414,288.1652661064426
769,6.935,IMU0,-11.64599609375,0.73388671875,1.833984375,-21.42857142857143,2294.3977591036414,289.14565826330534
770,6.945,IMU0,-11.58349609375,0.7294921875,1.8779296875,-19.327731092436977,2294.3977591036414,288.9355742296919
771,6.955,IMU0,-11.591796875,0.73974609375,1.87060546875,-17.086834733893557,2294.3977591036414,288.8655462184874
772,6.965,IMU0,-11.53662109375,0.734375,1.8486328125,-18.417366946778714,2294.3977591036414,290.26610644257704
773,6.975,IMU0,-11.5166015625,0.724609375,1.8955078125,-16.80672268907563,2294.3977591036414,291.1064425770308
774,6.985,IMU0,-11.5107421875,0.7392578125,1.85546875,-17.366946778711487,2294.3977591036414,291.38655462184875
775,6.995,IMU0,-11.51513671875,0.70703125,1.841796875,-21.708683473389357,2294.3977591036414,292.01680672268907
776,7.005,IMU0,-11.4619140625,0.70654296875,1.8369140625,-24.369747899159666,2294.3977591036414,291.52661064425774
777,7.015,IMU0,-11.3916015625,0.69482421875,1.8740234375,-23.38935574229692,2294.3977591036414,288.79551820728295
778,7.025,IMU0,-11.3955078125,0.70556640625,1.84326171875,-22.268907563025213,2294.3977591036414,285.92436974789916
779,7.035,IMU0,-11.3671875,0.72607421875,1.81396484375,-21.498599439775912,2294.3977591036414,284.87394957983196
780,7.045,IMU0,-11.3427734375,0.72607421875,1.81689453125,-17.57703081232493,2294.3977591036414,284.10364145658264
781,7.055,IMU0,-11.3212890625,0.71923828125,1.7666015625,-18.487394957983195,2294.3977591036414,285.0140056022409
782,7.065,IMU0,-11.25732421875,0.703125,1.77880859375,-20.798319327731093,2294.3977591036414,285.85434173669466
783,7.075,IMU0,-11.18896484375,0.70263671875,1.78271484375,-19.537815126050422,2294.3977591036414,285.29411764705884
784,7.085,IMU0,-11.08447265625,0.69482421875,1.78076171875,-20.798319327731093,2294.3977591036414,284.10364145658264
785,7.095,IMU0,-11.0966796875,0.7197265625,1.76025390625,-18.69747899159664,2294.3977591036414,282.00280112044817
786,7.105,IMU0,-11.11279296875,0.72705078125,1.79345703125,-17.717086834733895,2294.3977591036414,281.2324929971989
787,7.115,IMU0,-11.10693359375,0.734375,1.80810546875,-15.966386554621849,2294.3977591036414,283.8935574229692
788,7.125,IMU0,-11.052734375,0.71533203125,1.876953125,-16.176470588235293,2294.3977591036414,286.48459383753504
789,7.135,IMU0,-11.02099609375,0.71533203125,1.82373046875,-16.176470588235293,2294.3977591036414,286.48459383753504
790,7.145,IMU0,-11.02099609375,0.70556640625,1.82373046875,-16.246498599439775,2294.3977591036414,288.375350140056
791,7.155,IMU0,-10.9951171875,0.6767578125,1.75830078125,-18.76750700280112,2294.3977591036414,289.4257703081233
792,7.165,IMU0,-10.9814453125,0.6689453125,1.763671875,-24.369747899159666,2294.3977591036414,288.1652661064426
793,7.175,IMU0,-10.98291015625,0.65625,1.7607421875,-26.400560224089638,2294.3977591036414,284.9439775910364
794,7.185,IMU0,-10.982421875,0.66064453125,1.8017578125,-27.030812324929972,2294.3977591036414,281.2324929971989
795,7.195,IMU0,-10.94580078125,0.69140625,1.7607421875,-21.77871148459384,2294.3977591036414,278.1512605042017
796,7.205,IMU0,-10.86474609375,0.689453125,1.7255859375,-21.1484593837535,2294.3977591036414,277.3809523809524
797,7.215,IMU0,-10.77685546875,0.69189453125,1.67138671875,-21.288515406162468,2294.3977591036414,276.33053221288515
798,7.225,IMU0,-10.73095703125,0.6943359375,1.66552734375,-19.817927170868348,2294.3977591036414,275.35014005602244
799,7.235,IMU0,-10.697265625,0.69775390625,1.71875,-16.246498599439775,2294.3977591036414,275.21008403361344
800,7.245,IMU0,-10.6865234375,0.71923828125,1.72607421875,-13.65546218487395,2294.3977591036414,276.05042016806726
801,7.255,IMU0,-10.69384765625,0.71435546875,1.7177734375,-13.375350140056023,2294.3977591036414,279.5518207282913
802,7.265,IMU0,-10.634765625,0.69091796875,1.72216796875,-13.865546218487395,2294.3977591036414,282.00280112044817
803,7.275,IMU0,-10.61767578125,0.67724609375,1.68603515625,-18.627450980392158,2294.3977591036414,283.75350140056025
804,7.285,IMU0,-10.58349609375,0.646484375,1.76025390625,-20.098039215686274,2294.3977591036414,282.2829131652661
805,7.295,IMU0,-10.66015625,0.66357421875,1.75927734375,-18.76750700280112,2294.3977591036414,279.6918767507003
806,7.305,IMU0,-10.599609375,0.65869140625,1.73779296875,-21.1484593837535,2294.3977591036414,279.06162464985994
807,7.315,IMU0,-10.57568359375,0.66796875,1.75537109375,-19.88795518207283,2294.3977591036414,278.08123249299723
808,7.325,IMU0,-10.56884765625,0.65869140625,1.63134765625,-21.568627450980394,2294.3977591036414,278.1512605042017
809,7.335,IMU0,-10.53271484375,0.65283203125,1.65966796875,-22.268907563025213,2294.3977591036414,277.3109243697479
810,7.345,IMU0,-10.50146484375,0.64697265625,1.63232421875,-23.73949579831933,2294.3977591036414,274.92997198879556
811,7.355,IMU0,-10.43310546875,0.6494140625,1.68115234375,-23.529411764705884,2294.3977591036414,272.61904761904765
812,7.365,IMU0,-10.43798828125,0.6689453125,1.64013671875,-20.028011204481793,2294.3977591036414,270.16806722689074
813,7.375,IMU0,-10.38232421875,0.6845703125,1.640625,-16.73669467787115,2294.3977591036414,270.4481792717087
814,7.385,IMU0,-10.390625,0.6767578125,1.62060546875,-13.305322128851541,2294.3977591036414,271.98879551820727
815,7.395,IMU0,-10.35205078125,0.6650390625,1.6181640625,-14.775910364145659,2294.3977591036414,275.0700280112045
816,7.405,IMU0,-10.33935546875,0.65673828125,1.69921875,-16.526610644257705,2294.3977591036414,276.890756302521
817,7.415,IMU0,-10.2900390625,0.64697265625,1.69677734375,-16.526610644257705,2294.3977591036414,277.52100840336135
818,7.425,IMU0,-10.28662109375,0.63671875,1.697265625,-18.137254901960784,2294.3977591036414,276.9607843137255
819,7.435,IMU0,-10.27978515625,0.6376953125,1.64697265625,-20.798319327731093,2294.3977591036414,276.33053221288515
820,7.445,IMU0,-10.27099609375,0.6279296875,1.6357421875,-20.028011204481793,2294.3977591036414,275.0700280112045
821,7.455,IMU0,-10.24267578125,0.6318359375,1.630859375,-24.439775910364148,2294.3977591036414,273.8095238095238
822,7.465,IMU0,-10.173828125,0.62890625,1.63916015625,-23.669467787114847,2294.3977591036414,271.7086834733894
823,7.475,IMU0,-10.12548828125,0.6337890625,1.61865234375,-21.9187675070028,2294.3977591036414,269.04761904761904
824,7.485,IMU0,-10.08154296875,0.63525390625,1.6123046875,-21.008403361344538,2294.3977591036414,267.64705882352945
825,7.495,IMU0,-10.08447265625,0.65380859375,1.599609375,-16.946778711484594,2294.3977591036414,267.3669467787115
826,7.505,IMU0,-10.06787109375,0.65380859375,1.58154296875,-16.73669467787115,2294.3977591036414,268.76750700280115
827,7.515,IMU0,-10.0322265625,0.6484375,1.64208984375,-16.03641456582633,2294.3977591036414,270.23809523809524
828,7.525,IMU0,-10.02294921875,0.6474609375,1.6083984375,-17.296918767507005,2294.3977591036414,271.7086834733894
829,7.535,IMU0,-9.9609375,0.6328125,1.6240234375,-19.18767507002801,2294.3977591036414,272.89915966386553
830,7.545,IMU0,-9.94970703125,0.61962890625,1.5888671875,-19.95798319327731,2294.3977591036414,272.19887955182077
831,7.555,IMU0,-9.947265625,0.6162109375,1.58056640625,-20.308123249299722,2294.3977591036414,270.5182072829132
832,7.565,IMU0,-9.94384765625,0.62939453125,1.60693359375,-19.537815126050422,2294.3977591036414,268.76750700280115
833,7.575,IMU0,-9.9052734375,0.61474609375,1.6123046875,-20.098039215686274,2294.3977591036414,267.57703081232495
834,7.585,IMU0,-9.875,0.62744140625,1.60595703125,-19.607843137254903,2294.3977591036414,266.9467787114846
835,7.595,IMU0,-9.86474609375,0.62939453125,1.5634765625,-16.526610644257705,2294.3977591036414,266.8767507002801
836,7.605,IMU0,-9.86474609375,0.62939453125,1.5634765625,-16.526610644257705,2294.3977591036414,266.8767507002801
837,7.615,IMU0,-9.841796875,0.63232421875,1.56787109375,-17.296918767507005,2294.3977591036414,267.2268907563025
838,7.625,IMU0,-9.8095703125,0.6162109375,1.5234375,-19.747899159663866,2294.3977591036414,267.50700280112045
839,7.635,IMU0,-9.740234375,0.60595703125,1.53662109375,-21.07843137254902,2294.3977591036414,266.5966386554622
840,7.645,IMU0,-9.71826171875,0.611328125,1.5546875,-20.798319327731093,2294.3977591036414,264.4257703081233
841,7.655,IMU0,-9.677734375,0.6181640625,1.537109375,-19.817927170868348,2294.3977591036414,262.7450980392157
842,7.665,IMU0,-9.6953125,0.640625,1.57568359375,-16.31652661064426,2294.3977591036414,261.9747899159664
843,7.675,IMU0,-9.69189453125,0.6474609375,1.537109375,-13.375350140056023,2294.3977591036414,263.9355742296919
844,7.685,IMU0,-9.68212890625,0.6279296875,1.54931640625,-14.985994397759104,2294.3977591036414,267.15686274509807
845,7.695,IMU0,-9.6494140625,0.61181640625,1.5537109375,-15.546218487394958,2294.3977591036414,269.04761904761904
846,7.705,IMU0,-9.630859375,0.59814453125,1.54541015625,-16.946778711484594,2294.3977591036414,269.6078431372549
847,7.715,IMU0,-9.59326171875,0.5849609375,1.58642578125,-19.95798319327731,2294.3977591036414,268.4873949579832
848,7.725,IMU0,-9.60498046875,0.5927734375,1.58203125,-22.61904761904762,2294.3977591036414,266.2464985994398
849,7.735,IMU0,-9.578125,0.59521484375,1.5615234375,-23.31932773109244,2294.3977591036414,264.6358543417367
850,7.745,IMU0,-9.548828125,0.59521484375,1.52880859375,-21.498599439775912,2294.3977591036414,263.375350140056
851,7.755,IMU0,-9.51123046875,0.59375,1.50390625,-22.969187675070028,2294.3977591036414,262.8851540616247
852,7.765,IMU0,-9.505859375,0.60009765625,1.5009765625,-21.288515406162468,2294.3977591036414,262.04481792717087
853,7.775,IMU0,-9.431640625,0.59716796875,1.52783203125,-20.58823529411765,2294.3977591036414,261.06442577030816
854,7.785,IMU0,-9.421875,0.6044921875,1.49169921875,-18.69747899159664,2294.3977591036414,260.22408963585434
855,7.795,IMU0,-9.4052734375,0.60107421875,1.47607421875,-17.50700280112045,2294.3977591036414,259.3837535014006
856,7.805,IMU0,-9.40869140625,0.609375,1.49951171875,-15.336134453781513,2294.3977591036414,260.0140056022409
857,7.815,IMU0,-9.37548828125,0.603515625,1.50634765625,-13.515406162464986,2294.3977591036414,261.34453781512605
858,7.825,IMU0,-9.33447265625,0.5986328125,1.48681640625,-15.476190476190476,2294.3977591036414,262.8851540616247
859,7.835,IMU0,-9.31396484375,0.5849609375,1.4755859375,-18.557422969187677,2294.3977591036414,263.02521008403363
860,7.845,IMU0,-9.2880859375,0.5927734375,1.5078125,-19.817927170868348,2294.3977591036414,261.9047619047619
861,7.855,IMU0,-9.2998046875,0.5859375,1.53662109375,-19.677871148459385,2294.3977591036414,260.36414565826334
862,7.865,IMU0,-9.27880859375,0.5859375,1.517578125,-16.38655462184874,2294.3977591036414,259.593837535014
863,7.875,IMU0,-9.2568359375,0.59521484375,1.50390625,-17.296918767507005,2294.3977591036414,260.36414565826334
864,7.885,IMU0,-9.23046875,0.5888671875,1.49365234375,-16.876750700280112,2294.3977591036414,260.92436974789916
865,7.895,IMU0,-9.208984375,0.58251953125,1.4521484375,-19.817927170868348,2294.3977591036414,261.1344537815126
866,7.905,IMU0,-9.18994140625,0.56982421875,1.44091796875,-21.9187675070028,2294.3977591036414,260.22408963585434
867,7.915,IMU0,-9.169921875,0.560546875,1.44775390625,-21.84873949579832,2294.3977591036414,258.4733893557423
868,7.925,IMU0,-9.13134765625,0.5625,1.4619140625,-21.1484593837535,2294.3977591036414,255.95238095238096
869,7.935,IMU0,-9.09228515625,0.5810546875,1.46484375,-17.717086834733895,2294.3977591036414,253.85154061624652
870,7.945,IMU0,-9.068359375,0.5927734375,1.44775390625,-16.946778711484594,2294.3977591036414,253.36134453781514
871,7.955,IMU0,-9.0732421875,0.59375,1.43115234375,-15.756302521008404,2294.3977591036414,254.41176470588238
872,7.965,IMU0,-9.05615234375,0.59228515625,1.451171875,-15.19607843137255,2294.3977591036414,256.44257703081234
873,7.975,IMU0,-9.0234375,0.57568359375,1.4482421875,-15.966386554621849,2294.3977591036414,258.8235294117647
874,7.985,IMU0,-8.99853515625,0.56591796875,1.451171875,-16.596638655462186,2294.3977591036414,259.9439775910364
875,7.995,IMU0,-8.97021484375,0.5615234375,1.45166015625,-19.18767507002801,2294.3977591036414,259.3837535014006
876,8.005,IMU0,-8.98291015625,0.560546875,1.45654296875,-19.46778711484594,2294.3977591036414,257.4229691876751
877,8.015,IMU0,-8.97509765625,0.56103515625,1.43994140625,-20.518207282913167,2294.3977591036414,256.30252100840335
878,8.025,IMU0,-8.95947265625,0.5556640625,1.45458984375,-19.537815126050422,2294.3977591036414,254.6918767507003
879,8.035,IMU0,-8.931640625,0.5654296875,1.43408203125,-19.047619047619047,2294.3977591036414,254.41176470588238
880,8.045,IMU0,-8.8955078125,0.56103515625,1.4033203125,-19.047619047619047,2294.3977591036414,254.55182072829132
881,8.055,IMU0,-8.8701171875,0.55517578125,1.39453125,-17.99719887955182,2294.3977591036414,253.71148459383755
882,8.065,IMU0,-8.8701171875,0.55517578125,1.39453125,-17.99719887955182,2294.3977591036414,253.71148459383755
883,8.075,IMU0,-8.85498046875,0.5634765625,1.40380859375,-19.11764705882353,2294.3977591036414,253.29131652661064
884,8.085,IMU0,-8.826171875,0.5625,1.44140625,-18.207282913165265,2294.3977591036414,252.66106442577032
885,8.095,IMU0,-8.83349609375,0.56640625,1.421875,-17.296918767507005,2294.3977591036414,252.7310924369748
886,8.105,IMU0,-8.76513671875,0.5537109375,1.42578125,-17.22689075630252,2294.3977591036414,253.1512605042017
887,8.115,IMU0,-8.74951171875,0.56298828125,1.4033203125,-15.756302521008404,2294.3977591036414,253.29131652661064
888,8.125,IMU0,-8.7216796875,0.5478515625,1.37060546875,-16.176470588235293,2294.3977591036414,253.57142857142858
889,8.135,IMU0,-8.73779296875,0.54443359375,1.37451171875,-18.557422969187677,2294.3977591036414,253.5014005602241
890,8.145,IMU0,-8.68310546875,0.54248046875,1.41357421875,-18.69747899159664,2294.3977591036414,252.87114845938376
891,8.155,IMU0,-8.6640625,0.546875,1.42529296875,-19.95798319327731,2294.3977591036414,252.03081232493
892,8.165,IMU0,-8.65625,0.544921875,1.3916015625,-18.627450980392158,2294.3977591036414,251.40056022408965
893,8.175,IMU0,-8.64892578125,0.55078125,1.3916015625,-17.99719887955182,2294.3977591036414,251.47058823529412
894,8.185,IMU0,-8.6376953125,0.54736328125,1.36279296875,-17.016806722689076,2294.3977591036414,251.75070028011206
895,8.195,IMU0,-8.6142578125,0.54150390625,1.37255859375,-18.907563025210084,2294.3977591036414,252.17086834733894
896,8.205,IMU0,-8.56689453125,0.52685546875,1.3720703125,-21.1484593837535,2294.3977591036414,251.68067226890759
897,8.215,IMU0,-8.53271484375,0.53125,1.359375,-21.42857142857143,2294.3977591036414,250.0
898,8.225,IMU0,-8.5234375,0.533203125,1.3681640625,-20.868347338935575,2294.3977591036414,247.96918767507003
899,8.235,IMU0,-8.505859375,0.53662109375,1.3623046875,-20.65826330532213,2294.3977591036414,246.42857142857144
900,8.245,IMU0,-8.49462890625,0.55224609375,1.3720703125,-17.086834733893557,2294.3977591036414,245.8683473389356
901,8.255,IMU0,-8.427734375,0.55224609375,1.36328125,-15.336134453781513,2294.3977591036414,246.42857142857144
902,8.265,IMU0,-8.43798828125,0.54541015625,1.34326171875,-14.145658263305323,2294.3977591036414,247.7591036414566
903,8.275,IMU0,-8.42822265625,0.54638671875,1.3564453125,-15.336134453781513,2294.3977591036414,249.50980392156865
904,8.285,IMU0,-8.39404296875,0.52978515625,1.3837890625,-16.246498599439775,2294.3977591036414,250.70028011204482
905,8.295,IMU0,-8.373046875,0.5224609375,1.34814453125,-19.18767507002801,2294.3977591036414,250.77030812324932
906,8.305,IMU0,-8.35107421875,0.515625,1.32080078125,-21.07843137254902,2294.3977591036414,249.85994397759106
907,8.315,IMU0,-8.3544921875,0.5185546875,1.34375,-20.518207282913167,2294.3977591036414,247.89915966386556
908,8.325,IMU0,-8.3134765625,0.5224609375,1.333984375,-19.677871148459385,2294.3977591036414,245.72829131652662
909,8.335,IMU0,-8.2841796875,0.5244140625,1.2998046875,-20.168067226890756,2294.3977591036414,244.18767507002804
910,8.345,IMU0,-8.27294921875,0.5263671875,1.32177734375,-19.047619047619047,2294.3977591036414,242.64705882352942
911,8.355,IMU0,-8.2373046875,0.5341796875,1.28662109375,-18.76750700280112,2294.3977591036414,241.87675070028013
912,8.365,IMU0,-8.22607421875,0.5322265625,1.32861328125,-16.03641456582633,2294.3977591036414,242.08683473389357
913,8.375,IMU0,-8.2080078125,0.537109375,1.3037109375,-15.056022408963585,2294.3977591036414,242.85714285714286
914,8.385,IMU0,-8.17626953125,0.53369140625,1.298828125,-14.42577030812325,2294.3977591036414,244.53781512605042
915,8.395,IMU0,-8.17529296875,0.525390625,1.3193359375,-14.495798319327731,2294.3977591036414,245.8683473389356
916,8.405,IMU0,-8.1279296875,0.5126953125,1.31982421875,-16.80672268907563,2294.3977591036414,246.42857142857144
917,8.415,IMU0,-8.08740234375,0.5048828125,1.3173828125,-16.666666666666668,2294.3977591036414,245.65826330532215
918,8.425,IMU0,-8.10791015625,0.509765625,1.30810546875,-18.907563025210084,2294.3977591036414,244.53781512605042
919,8.435,IMU0,-8.1103515625,0.50927734375,1.31884765625,-19.11764705882353,2294.3977591036414,243.4873949579832
920,8.445,IMU0,-8.08154296875,0.50927734375,1.3271484375,-18.487394957983195,2294.3977591036414,242.92717086834736
921,8.455,IMU0,-8.0439453125,0.513671875,1.31396484375,-18.137254901960784,2294.3977591036414,242.7170868347339
922,8.465,IMU0,-8.02001953125,0.513671875,1.29345703125,-18.347338935574232,2294.3977591036414,242.85714285714286
923,8.475,IMU0,-8.01611328125,0.505859375,1.2568359375,-17.787114845938376,2294.3977591036414,242.57703081232495
924,8.485,IMU0,-7.99951171875,0.49853515625,1.2724609375,-18.837535014005603,2294.3977591036414,242.08683473389357
925,8.495,IMU0,-7.9892578125,0.49609375,1.27197265625,-18.907563025210084,2294.3977591036414,241.5966386554622
926,8.505,IMU0,-7.95166015625,0.5009765625,1.28662109375,-18.417366946778714,2294.3977591036414,240.406162464986
927,8.515,IMU0,-7.9296875,0.50048828125,1.2470703125,-17.016806722689076,2294.3977591036414,239.2156862745098
928,8.525,IMU0,-7.93798828125,0.5078125,1.220703125,-17.016806722689076,2294.3977591036414,239.2156862745098
929,8.535,IMU0,-7.93798828125,0.5078125,1.220703125,-17.787114845938376,2294.3977591036414,238.8655462184874
930,8.545,IMU0,-7.9150390625,0.50244140625,1.26171875,-16.876750700280112,2294.3977591036414,238.4453781512605
931,8.555,IMU0,-7.88330078125,0.50244140625,1.259765625,-16.666666666666668,2294.3977591036414,238.8655462184874
932,8.565,IMU0,-7.8271484375,0.509765625,1.27587890625,-15.336134453781513,2294.3977591036414,239.2156862745098
933,8.575,IMU0,-7.84912109375,0.5048828125,1.255859375,-14.42577030812325,2294.3977591036414,239.56582633053222
934,8.585,IMU0,-7.845703125,0.50439453125,1.2587890625,-15.406162464985995,2294.3977591036414,240.26610644257704
935,8.595,IMU0,-7.8388671875,0.4912109375,1.2841796875,-16.106442577030812,2294.3977591036414,240.61624649859945
936,8.605,IMU0,-7.7978515625,0.4970703125,1.28515625,-15.756302521008404,2294.3977591036414,241.24649859943978
937,8.615,IMU0,-7.7666015625,0.484375,1.2646484375,-17.50700280112045,2294.3977591036414,241.45658263305324
938,8.625,IMU0,-7.7587890625,0.47998046875,1.22216796875,-19.11764705882353,2294.3977591036414,240.19607843137257
939,8.635,IMU0,-7.75439453125,0.47900390625,1.22607421875,-20.168067226890756,2294.3977591036414,238.9355742296919
940,8.645,IMU0,-7.72705078125,0.4755859375,1.263671875,-19.677871148459385,2294.3977591036414,237.18487394957984
941,8.655,IMU0,-7.6826171875,0.48486328125,1.23681640625,-18.837535014005603,2294.3977591036414,235.29411764705884
942,8.665,IMU0,-7.6650390625,0.49072265625,1.24658203125,-16.73669467787115,2294.3977591036414,234.2436974789916
943,8.675,IMU0,-7.685546875,0.49755859375,1.1943359375,-16.246498599439775,2294.3977591036414,234.17366946778714
944,8.685,IMU0,-7.6875,0.49951171875,1.23779296875,-15.266106442577032,2294.3977591036414,235.71428571428572
945,8.695,IMU0,-7.65087890625,0.49169921875,1.23974609375,-15.616246498599441,2294.3977591036414,237.3249299719888
946,8.705,IMU0,-7.603515625,0.4853515625,1.22265625,-16.38655462184874,2294.3977591036414,238.4453781512605
947,8.715,IMU0,-7.5693359375,0.47705078125,1.19873046875,-17.43697478991597,2294.3977591036414,238.0952380952381
948,8.725,IMU0,-7.59326171875,0.470703125,1.197265625,-18.627450980392158,2294.3977591036414,236.76470588235296
949,8.735,IMU0,-7.57568359375,0.46484375,1.22509765625,-19.18767507002801,2294.3977591036414,235.0840336134454
950,8.745,IMU0,-7.55322265625,0.47900390625,1.23779296875,-18.27731092436975,2294.3977591036414,233.61344537815128
951,8.755,IMU0,-7.54052734375,0.47705078125,1.2275390625,-16.31652661064426,2294.3977591036414,232.91316526610646
952,8.765,IMU0,-7.5205078125,0.484375,1.20947265625,-15.336134453781513,2294.3977591036414,232.98319327731093
953,8.775,IMU0,-7.52001953125,0.48291015625,1.1611328125,-14.635854341736696,2294.3977591036414,233.61344537815128
954,8.785,IMU0,-7.52197265625,0.47802734375,1.205078125,-15.616246498599441,2294.3977591036414,234.733893557423
955,8.795,IMU0,-7.4638671875,0.4716796875,1.2099609375,-16.31652661064426,2294.3977591036414,235.22408963585434
956,8.805,IMU0,-7.44287109375,0.46630859375,1.173828125,-17.366946778711487,2294.3977591036414,235.22408963585434
957,8.815,IMU0,-7.4267578125,0.46435546875,1.1826171875,-18.207282913165265,2294.3977591036414,233.96358543417367
958,8.825,IMU0,-7.4482421875,0.46142578125,1.16943359375,-19.047619047619047,2294.3977591036414,232.49299719887955
959,8.835,IMU0,-7.43359375,0.46875,1.18701171875,-18.627450980392158,2294.3977591036414,231.5826330532213
960,8.845,IMU0,-7.3984375,0.4716796875,1.21044921875,-18.27731092436975,2294.3977591036414,230.8823529411765
961,8.855,IMU0,-7.36669921875,0.47265625,1.18896484375,-16.596638655462186,2294.3977591036414,230.8823529411765
962,8.865,IMU0,-7.3388671875,0.4677734375,1.17236328125,-15.056022408963585,2294.3977591036414,231.02240896358543
963,8.875,IMU0,-7.33251953125,0.4736328125,1.16650390625,-16.03641456582633,2294.3977591036414,231.65266106442579
964,8.885,IMU0,-7.3232421875,0.4697265625,1.19140625,-15.826330532212886,2294.3977591036414,232.21288515406164
965,8.895,IMU0,-7.3056640625,0.4609375,1.19189453125,-15.756302521008404,2294.3977591036414,232.63305322128852
966,8.905,IMU0,-7.27392578125,0.45751953125,1.2001953125,-15.826330532212886,2294.3977591036414,232.42296918767508
967,8.915,IMU0,-7.2587890625,0.4599609375,1.150390625,-17.15686274509804,2294.3977591036414,232.07282913165267
968,8.925,IMU0,-7.29443359375,0.45361328125,1.1796875,-18.417366946778714,2294.3977591036414,231.51260504201682
969,8.935,IMU0,-7.25732421875,0.44921875,1.162109375,-18.907563025210084,2294.3977591036414,230.8823529411765
970,8.945,IMU0,-7.21435546875,0.447265625,1.15283203125,-19.46778711484594,2294.3977591036414,229.90196078431373
971,8.955,IMU0,-7.20263671875,0.451171875,1.13037109375,-18.907563025210084,2294.3977591036414,228.29131652661064
972,8.965,IMU0,-7.18115234375,0.4541015625,1.1279296875,-17.57703081232493,2294.3977591036414,226.68067226890759
973,8.975,IMU0,-7.17333984375,0.45166015625,1.1494140625,-17.016806722689076,2294.3977591036414,225.77030812324932
974,8.985,IMU0,-7.13818359375,0.47119140625,1.1689453125,-16.456582633053223,2294.3977591036414,225.63025210084035
975,8.995,IMU0,-7.13818359375,0.47119140625,1.1689453125,-16.456582633053223,2294.3977591036414,225.63025210084035
976,9.005,IMU0,-7.12548828125,0.46240234375,1.1611328125,-14.495798319327731,2294.3977591036414,226.6106442577031
977,9.015,IMU0,-7.07958984375,0.4619140625,1.14453125,-12.955182072829132,2294.3977591036414,228.01120448179273
978,9.025,IMU0,-7.10107421875,0.45751953125,1.12890625,-13.375350140056023,2294.3977591036414,229.34173669467788
979,9.035,IMU0,-7.10595703125,0.44287109375,1.0830078125,-15.476190476190476,2294.3977591036414,230.3921568627451
980,9.045,IMU0,-7.07275390625,0.4365234375,1.1337890625,-18.487394957983195,2294.3977591036414,230.53221288515408
981,9.055,IMU0,-7.05126953125,0.4365234375,1.16455078125,-19.257703081232496,2294.3977591036414,229.2016806722689
982,9.065,IMU0,-6.986328125,0.43603515625,1.1484375,-18.907563025210084,2294.3977591036414,227.17086834733894
983,9.075,IMU0,-7.0146484375,0.43994140625,1.12158203125,-17.57703081232493,2294.3977591036414,224.85994397759106
984,9.085,IMU0,-7.02978515625,0.44873046875,1.1259765625,-16.73669467787115,2294.3977591036414,223.80952380952382
985,9.095,IMU0,-6.9892578125,0.4521484375,1.130859375,-15.546218487394958,2294.3977591036414,224.15966386554624
986,9.105,IMU0,-6.9921875,0.44482421875,1.12646484375,-14.775910364145659,2294.3977591036414,225.14005602240897
987,9.115,IMU0,-6.93701171875,0.44482421875,1.10302734375,-15.686274509803923,2294.3977591036414,226.26050420168067
988,9.125,IMU0,-6.9462890625,0.443359375,1.09033203125,-15.966386554621849,2294.3977591036414,226.33053221288517
989,9.135,IMU0,-6.9140625,0.42919921875,1.083984375,-17.99719887955182,2294.3977591036414,225.91036414565826
990,9.145,IMU0,-6.9052734375,0.43359375,1.1171875,-18.27731092436975,2294.3977591036414,224.78991596638656
991,9.155,IMU0,-6.9248046875,0.44091796875,1.09814453125,-18.067226890756302,2294.3977591036414,223.80952380952382
992,9.165,IMU0,-6.87353515625,0.43310546875,1.10791015625,-16.03641456582633,2294.3977591036414,223.03921568627453
993,9.175,IMU0,-6.85986328125,0.43603515625,1.083984375,-16.456582633053223,2294.3977591036414,222.61904761904762
994,9.185,IMU0,-6.85400390625,0.4326171875,1.06396484375,-16.456582633053223,2294.3977591036414,222.61904761904762
995,9.195,IMU0,-6.841796875,0.4296875,1.09326171875,-16.666666666666668,2294.3977591036414,222.47899159663868
996,9.205,IMU0,-6.8193359375,0.43359375,1.09228515625,-17.15686274509804,2294.3977591036414,222.3389355742297
997,9.215,IMU0,-6.77685546875,0.43115234375,1.08740234375,-16.31652661064426,2294.3977591036414,222.2689075630252
998,9.225,IMU0,-6.78076171875,0.4404296875,1.10888671875,-15.056022408963585,2294.3977591036414,222.05882352941177
999,9.235,IMU0,-6.7841796875,0.4384765625,1.08056640625,-14.84593837535014,2294.3977591036414,222.2689075630252
1000,9.245,IMU0,-6.77880859375,0.4306640625,1.08935546875,-15.056022408963585,2294.3977591036414,222.89915966386556
1001,9.255,IMU0,-6.7890625,0.43212890625,1.0927734375,-14.985994397759104,2294.3977591036414,223.59943977591038
1002,9.265,IMU0,-6.7431640625,0.4150390625,1.07177734375,-16.246498599439775,2294.3977591036414,224.2997198879552
1003,9.275,IMU0,-6.72119140625,0.41748046875,1.06005859375,-17.57703081232493,2294.3977591036414,223.73949579831933
1004,9.285,IMU0,-6.71044921875,0.41015625,1.046875,-19.537815126050422,2294.3977591036414,221.84873949579833
1005,9.295,IMU0,-6.69140625,0.412109375,1.078125,-19.747899159663866,2294.3977591036414,219.81792717086836
1006,9.305,IMU0,-6.69970703125,0.42333984375,1.07080078125,-18.207282913165265,2294.3977591036414,217.85714285714286
1007,9.315,IMU0,-6.67529296875,0.42529296875,1.0830078125,-16.526610644257705,2294.3977591036414,217.43697478991598
1008,9.325,IMU0,-6.66455078125,0.4287109375,1.0830078125,-13.305322128851541,2294.3977591036414,217.7871148459384
1009,9.335,IMU0,-6.6474609375,0.4375,1.060546875,-11.554621848739496,2294.3977591036414,219.2577030812325
1010,9.345,IMU0,-6.63427734375,0.43017578125,1.05419921875,-12.53501400560224,2294.3977591036414,221.07843137254903
1011,9.355,IMU0,-6.62939453125,0.4189453125,1.04150390625,-14.775910364145659,2294.3977591036414,222.89915966386556
1012,9.365,IMU0,-6.5654296875,0.40869140625,1.064453125,-16.456582633053223,2294.3977591036414,223.17927170868347
1013,9.375,IMU0,-6.5732421875,0.39697265625,1.05517578125,-17.99719887955182,2294.3977591036414,221.6386554621849
1014,9.385,IMU0,-6.52490234375,0.404296875,1.044921875,-19.817927170868348,2294.3977591036414,219.46778711484595
1015,9.395,IMU0,-6.54150390625,0.4091796875,1.07177734375,-19.817927170868348,2294.3977591036414,217.22689075630254
1016,9.405,IMU0,-6.52587890625,0.41064453125,1.07080078125,-17.366946778711487,2294.3977591036414,215.8263305322129
1017,9.415,IMU0,-6.51025390625,0.42236328125,1.060546875,-15.686274509803923,2294.3977591036414,215.3361344537815
1018,9.425,IMU0,-6.50244140625,0.421875,1.03271484375,-13.935574229691877,2294.3977591036414,216.03641456582633
1019,9.435,IMU0,-6.47607421875,0.4111328125,1.02001953125,-13.305322128851541,2294.3977591036414,217.50700280112045
1020,9.445,IMU0,-6.462890625,0.40966796875,1.02978515625,-14.355742296918768,2294.3977591036414,218.55742296918768
1021,9.455,IMU0,-6.462890625,0.40966796875,1.02978515625,-14.355742296918768,2294.3977591036414,218.55742296918768
1022,9.465,IMU0,-6.42724609375,0.40625,1.02197265625,-16.176470588235293,2294.3977591036414,218.97759103641457
1023,9.475,IMU0,-6.4091796875,0.396484375,1.01171875,-17.366946778711487,2294.3977591036414,218.1372549019608
1024,9.485,IMU0,-6.42724609375,0.3955078125,1.03125,-17.086834733893557,2294.3977591036414,216.5966386554622
1025,9.495,IMU0,-6.4033203125,0.396484375,1.02880859375,-17.086834733893557,2294.3977591036414,215.3361344537815
1026,9.505,IMU0,-6.3857421875,0.40625,1.05517578125,-16.596638655462186,2294.3977591036414,214.49579831932775
1027,9.515,IMU0,-6.36279296875,0.40771484375,0.99658203125,-15.19607843137255,2294.3977591036414,214.14565826330534
1028,9.525,IMU0,-6.35791015625,0.4091796875,0.98486328125,-14.285714285714286,2294.3977591036414,214.49579831932775
1029,9.535,IMU0,-6.33935546875,0.40283203125,1.0146484375,-15.686274509803923,2294.3977591036414,215.0560224089636
1030,9.545,IMU0,-6.3134765625,0.3955078125,1.00390625,-15.406162464985995,2294.3977591036414,215.12605042016807
1031,9.555,IMU0,-6.263671875,0.39111328125,1.013671875,-15.686274509803923,2294.3977591036414,214.7058823529412
1032,9.565,IMU0,-6.26904296875,0.39990234375,1.01318359375,-14.285714285714286,2294.3977591036414,213.58543417366948
1033,9.575,IMU0,-6.27783203125,0.40380859375,0.9951171875,-14.355742296918768,2294.3977591036414,213.4453781512605
1034,9.585,IMU0,-6.2744140625,0.39794921875,1.03515625,-13.935574229691877,2294.3977591036414,213.72549019607845
1035,9.595,IMU0,-6.2626953125,0.39306640625,1.02099609375,-14.42577030812325,2294.3977591036414,214.56582633053222
1036,9.605,IMU0,-6.234375,0.392578125,0.9765625,-14.915966386554622,2294.3977591036414,215.12605042016807
1037,9.615,IMU0,-6.22705078125,0.384765625,0.98046875,-16.73669467787115,2294.3977591036414,215.26610644257704
1038,9.625,IMU0,-6.21044921875,0.38232421875,0.95849609375,-18.27731092436975,2294.3977591036414,214.7058823529412
1039,9.635,IMU0,-6.177734375,0.376953125,0.970703125,-18.837535014005603,2294.3977591036414,212.8151260504202
1040,9.645,IMU0,-6.17236328125,0.37890625,0.982421875,-19.257703081232496,2294.3977591036414,210.3641456582633
1041,9.655,IMU0,-6.158203125,0.3798828125,0.9931640625,-17.22689075630252,2294.3977591036414,208.26330532212887
1042,9.665,IMU0,-6.1640625,0.3984375,0.99462890625,-15.406162464985995,2294.3977591036414,207.2829131652661
1043,9.675,IMU0,-6.14453125,0.408203125,0.98779296875,-13.58543417366947,2294.3977591036414,207.91316526610646
1044,9.685,IMU0,-6.1513671875,0.40380859375,0.9912109375,-11.834733893557424,2294.3977591036414,209.80392156862746
1045,9.695,IMU0,-6.10986328125,0.39501953125,0.958984375,-11.27450980392157,2294.3977591036414,212.3249299719888
1046,9.705,IMU0,-6.10693359375,0.3935546875,0.974609375,-12.815126050420169,2294.3977591036414,214.35574229691878
1047,9.715,IMU0,-6.0791015625,0.3701171875,0.9326171875,-15.056022408963585,2294.3977591036414,215.0560224089636
1048,9.725,IMU0,-6.0849609375,0.3681640625,0.97802734375,-17.787114845938376,2294.3977591036414,214.14565826330534
1049,9.735,IMU0,-6.07177734375,0.36572265625,0.9755859375,-18.977591036414566,2294.3977591036414,212.11484593837537
1050,9.745,IMU0,-6.060546875,0.3681640625,0.99462890625,-18.977591036414566,2294.3977591036414,209.87394957983193
1051,9.755,IMU0,-6.05078125,0.3759765625,0.9716796875,-17.99719887955182,2294.3977591036414,207.91316526610646
1052,9.765,IMU0,-6.052734375,0.38330078125,0.95556640625,-16.106442577030812,2294.3977591036414,207.0028011204482
1053,9.775,IMU0,-6.03759765625,0.3779296875,0.94091796875,-15.896358543417367,2294.3977591036414,207.21288515406164
1054,9.785,IMU0,-6.0302734375,0.380859375,0.95751953125,-14.075630252100842,2294.3977591036414,207.98319327731093
1055,9.795,IMU0,-5.9814453125,0.38232421875,0.9697265625,-14.355742296918768,2294.3977591036414,208.68347338935575
1056,9.805,IMU0,-5.9580078125,0.3740234375,0.95556640625,-14.495798319327731,2294.3977591036414,208.8935574229692
1057,9.815,IMU0,-5.95703125,0.3779296875,0.92431640625,-14.565826330532213,2294.3977591036414,208.96358543417367
1058,9.825,IMU0,-5.94140625,0.369140625,0.9541015625,-14.915966386554622,2294.3977591036414,208.68347338935575
1059,9.835,IMU0,-5.93603515625,0.365234375,0.96337890625,-15.336134453781513,2294.3977591036414,208.4033613445378
1060,9.845,IMU0,-5.9052734375,0.373046875,0.9541015625,-15.826330532212886,2294.3977591036414,208.4033613445378
1061,9.855,IMU0,-5.87255859375,0.369140625,0.94921875,-15.686274509803923,2294.3977591036414,207.84313725490196
1062,9.865,IMU0,-5.8876953125,0.3671875,0.9169921875,-15.266106442577032,2294.3977591036414,207.0028011204482
